Participant,Condition,Trial,ResponseTime,Accuracy,StimulusSide,ResponseSide
1,LR-LS,1,341.2441090885553,1,Left,Left
1,LR-LS,2,384.90042698244724,1,Left,Left
1,LR-LS,3,331.71095479841773,1,Left,Left
1,LR-LS,4,314.7351756271353,1,Left,Left
1,LR-LS,5,382.12390505834526,1,Left,Left
1,LR-LS,6,323.7335569920679,1,Left,Left
1,LR-LS,7,339.0084315466572,1,Left,Left
1,LR-LS,8,329.31619505304974,1,Left,Left
1,LR-LS,9,307.5844515532956,1,Left,Left
1,LR-LS,10,305.453443711892,0,Left,Left
1,LR-LS,11,362.0447978436422,1,Left,Left
1,LR-LS,12,325.9738173256725,1,Left,Left
1,LR-LS,13,354.6226773606596,0,Left,Left
1,LR-LS,14,360.2298076604308,1,Left,Left
1,LR-LS,15,328.80272688142054,1,Left,Left
1,LR-LS,16,304.3576007080088,1,Left,Left
1,LR-LS,17,382.4174392865289,1,Left,Left
1,LR-LS,18,320.62840603463445,1,Left,Left
1,LR-LS,19,325.4981096072163,1,Left,Left
1,LR-LS,20,278.9223773069864,1,Left,Left
1,LR-LS,21,351.46786033558476,0,Left,Left
1,LR-LS,22,314.501752029026,1,Left,Left
1,LR-LS,23,313.3881122780637,1,Left,Left
1,LR-LS,24,357.3924364316362,1,Left,Left
1,LR-LS,25,327.75285901549313,1,Left,Left
1,LR-LS,26,359.23026083434746,1,Left,Left
1,LR-LS,27,277.14404475903893,1,Left,Left
1,LR-LS,28,364.3059659805623,1,Left,Left
1,LR-LS,29,344.64192364181065,1,Left,Left
1,LR-LS,30,337.82865145776384,1,Left,Left
1,LR-LS,31,319.524474020147,1,Left,Left
1,LR-LS,32,380.4386318284733,1,Left,Left
1,LR-LS,33,336.64654951153494,1,Left,Left
1,LR-LS,34,295.0095078450631,1,Left,Left
1,LR-LS,35,398.3204452049623,1,Left,Left
1,LR-LS,36,334.6059763721921,1,Left,Left
1,LR-LS,37,329.4311673895461,1,Left,Left
1,LR-LS,38,287.3262243587979,1,Left,Left
1,LR-LS,39,310.6942018487833,1,Left,Left
1,LR-LS,40,348.8464504454967,1,Left,Left
1,LR-RS,1,322.6597358956738,1,Right,Left
1,LR-RS,2,326.3386531292304,1,Right,Left
1,LR-RS,3,319.6902238829877,1,Right,Left
1,LR-RS,4,310.7787083911992,1,Right,Left
1,LR-RS,5,314.2434981992749,0,Right,Left
1,LR-RS,6,381.3571585196829,1,Right,Left
1,LR-RS,7,373.0045059845559,1,Right,Left
1,LR-RS,8,331.9937775050264,0,Right,Left
1,LR-RS,9,285.7938495984261,1,Right,Left
1,LR-RS,10,300.7928023323139,1,Right,Left
1,LR-RS,11,329.7346377808635,1,Right,Left
1,LR-RS,12,331.7865616135079,1,Right,Left
1,LR-RS,13,307.62159595352705,1,Right,Left
1,LR-RS,14,298.4690932750102,1,Right,Left
1,LR-RS,15,292.91588441874796,1,Right,Left
1,LR-RS,16,231.82641345436178,1,Right,Left
1,LR-RS,17,369.5517988162266,1,Right,Left
1,LR-RS,18,380.3486612602211,1,Right,Left
1,LR-RS,19,415.4363491347951,0,Right,Left
1,LR-RS,20,418.36995532082284,1,Right,Left
1,LR-RS,21,245.34115363692393,1,Right,Left
1,LR-RS,22,270.7806740805303,1,Right,Left
1,LR-RS,23,340.64156100005914,1,Right,Left
1,LR-RS,24,288.7470099200933,1,Right,Left
1,LR-RS,25,378.1589835761338,1,Right,Left
1,LR-RS,26,302.417044070898,1,Right,Left
1,LR-RS,27,371.8031655959019,1,Right,Left
1,LR-RS,28,361.904617540929,1,Right,Left
1,LR-RS,29,425.1834986048467,1,Right,Left
1,LR-RS,30,333.9910781116134,1,Right,Left
1,LR-RS,31,307.8255675313847,1,Right,Left
1,LR-RS,32,323.0376317876496,1,Right,Left
1,LR-RS,33,310.2757970025824,0,Right,Left
1,LR-RS,34,279.49834224224105,1,Right,Left
1,LR-RS,35,273.313167930227,1,Right,Left
1,LR-RS,36,347.699350895666,1,Right,Left
1,LR-RS,37,374.24814540462097,0,Right,Left
1,LR-RS,38,361.14581887684045,0,Right,Left
1,LR-RS,39,299.9721549787843,1,Right,Left
1,LR-RS,40,287.33779108204516,1,Right,Left
1,RR-RS,1,355.76842454980954,1,Right,Right
1,RR-RS,2,298.47135554727896,1,Right,Right
1,RR-RS,3,317.9980363952462,1,Right,Right
1,RR-RS,4,322.9695978607666,1,Right,Right
1,RR-RS,5,323.2785699412156,1,Right,Right
1,RR-RS,6,328.3507300148272,1,Right,Right
1,RR-RS,7,304.60053743109484,1,Right,Right
1,RR-RS,8,355.1791935104866,1,Right,Right
1,RR-RS,9,345.2975038566714,1,Right,Right
1,RR-RS,10,370.0277515194807,1,Right,Right
1,RR-RS,11,301.6617446319451,1,Right,Right
1,RR-RS,12,277.081165452785,0,Right,Right
1,RR-RS,13,321.59689378058295,1,Right,Right
1,RR-RS,14,330.8343683541986,1,Right,Right
1,RR-RS,15,323.00391343067884,1,Right,Right
1,RR-RS,16,335.946391048147,1,Right,Right
1,RR-RS,17,273.35868835546705,1,Right,Right
1,RR-RS,18,328.0996120524727,1,Right,Right
1,RR-RS,19,303.56440137071644,1,Right,Right
1,RR-RS,20,283.49428833411093,1,Right,Right
1,RR-RS,21,324.093606006267,1,Right,Right
1,RR-RS,22,378.7416598924698,0,Right,Right
1,RR-RS,23,359.81090643715896,1,Right,Right
1,RR-RS,24,304.54748121700436,1,Right,Right
1,RR-RS,25,370.3445935663842,1,Right,Right
1,RR-RS,26,308.6674016731465,1,Right,Right
1,RR-RS,27,306.95299712596074,0,Right,Right
1,RR-RS,28,266.31300441944074,1,Right,Right
1,RR-RS,29,318.3151556644266,1,Right,Right
1,RR-RS,30,300.527978570081,1,Right,Right
1,RR-RS,31,334.91372963848727,1,Right,Right
1,RR-RS,32,312.1350316949583,1,Right,Right
1,RR-RS,33,338.09782130662893,1,Right,Right
1,RR-RS,34,309.1626644713016,1,Right,Right
1,RR-RS,35,374.5664179385877,1,Right,Right
1,RR-RS,36,309.92069841029206,0,Right,Right
1,RR-RS,37,341.9505123925694,0,Right,Right
1,RR-RS,38,305.79528619251295,1,Right,Right
1,RR-RS,39,333.41467297092464,1,Right,Right
1,RR-RS,40,339.18176551505064,1,Right,Right
1,RR-LS,1,361.11300383376084,1,Left,Right
1,RR-LS,2,369.0612849549859,0,Left,Right
1,RR-LS,3,384.2352503109929,1,Left,Right
1,RR-LS,4,277.96647003472685,1,Left,Right
1,RR-LS,5,271.8346319123105,1,Left,Right
1,RR-LS,6,300.1633680393984,1,Left,Right
1,RR-LS,7,394.6231853777863,1,Left,Right
1,RR-LS,8,341.0357971459233,1,Left,Right
1,RR-LS,9,419.3711448420825,1,Left,Right
1,RR-LS,10,377.5880141060194,0,Left,Right
1,RR-LS,11,336.24002646367023,0,Left,Right
1,RR-LS,12,450.8336252033614,1,Left,Right
1,RR-LS,13,299.4786219336617,1,Left,Right
1,RR-LS,14,391.9952972710409,1,Left,Right
1,RR-LS,15,341.86805271452806,1,Left,Right
1,RR-LS,16,351.97563056468675,1,Left,Right
1,RR-LS,17,251.82914450505228,1,Left,Right
1,RR-LS,18,361.34162850994096,1,Left,Right
1,RR-LS,19,347.3881309514939,0,Left,Right
1,RR-LS,20,336.35925395929735,1,Left,Right
1,RR-LS,21,301.22885411868515,1,Left,Right
1,RR-LS,22,362.40248905113987,0,Left,Right
1,RR-LS,23,310.12160263022054,1,Left,Right
1,RR-LS,24,368.0848383269791,1,Left,Right
1,RR-LS,25,411.3895423037907,1,Left,Right
1,RR-LS,26,402.74600784025847,1,Left,Right
1,RR-LS,27,419.9397601892781,1,Left,Right
1,RR-LS,28,240.94821537522483,0,Left,Right
1,RR-LS,29,341.75641547963045,1,Left,Right
1,RR-LS,30,390.90859052920496,1,Left,Right
1,RR-LS,31,351.3082792784762,1,Left,Right
1,RR-LS,32,308.39992152615247,1,Left,Right
1,RR-LS,33,310.54297036150604,1,Left,Right
1,RR-LS,34,315.69757615989,1,Left,Right
1,RR-LS,35,308.70540384091896,1,Left,Right
1,RR-LS,36,372.94278179439794,1,Left,Right
1,RR-LS,37,340.596455646025,1,Left,Right
1,RR-LS,38,290.3455906798667,1,Left,Right
1,RR-LS,39,367.90050421800515,1,Left,Right
1,RR-LS,40,336.80647686242924,1,Left,Right
2,LR-LS,1,337.77741215303485,1,Left,Left
2,LR-LS,2,314.5860747716132,1,Left,Left
2,LR-LS,3,381.9479799375851,1,Left,Left
2,LR-LS,4,300.1180976269451,1,Left,Left
2,LR-LS,5,322.5843713883503,1,Left,Left
2,LR-LS,6,307.8562889808003,1,Left,Left
2,LR-LS,7,288.18031136767587,1,Left,Left
2,LR-LS,8,314.18069405166494,1,Left,Left
2,LR-LS,9,335.58791904655936,1,Left,Left
2,LR-LS,10,334.5708243288922,1,Left,Left
2,LR-LS,11,265.91890556647036,1,Left,Left
2,LR-LS,12,327.73694181213665,1,Left,Left
2,LR-LS,13,309.9936785124113,1,Left,Left
2,LR-LS,14,255.86614253991826,1,Left,Left
2,LR-LS,15,279.4413535675997,1,Left,Left
2,LR-LS,16,241.59516802783406,1,Left,Left
2,LR-LS,17,310.74583629790214,1,Left,Left
2,LR-LS,18,327.63964123931623,1,Left,Left
2,LR-LS,19,327.562497663607,1,Left,Left
2,LR-LS,20,337.0258172812936,1,Left,Left
2,LR-LS,21,348.9262503270112,1,Left,Left
2,LR-LS,22,342.1238008632331,1,Left,Left
2,LR-LS,23,266.95538215190425,1,Left,Left
2,LR-LS,24,318.6351475972042,1,Left,Left
2,LR-LS,25,306.38380215128933,1,Left,Left
2,LR-LS,26,270.818331548165,1,Left,Left
2,LR-LS,27,306.7618621542478,1,Left,Left
2,LR-LS,28,306.5738963454627,1,Left,Left
2,LR-LS,29,266.7099830259732,1,Left,Left
2,LR-LS,30,269.0195206790537,1,Left,Left
2,LR-LS,31,356.7675209241075,1,Left,Left
2,LR-LS,32,282.3157029927405,1,Left,Left
2,LR-LS,33,312.4779918351448,1,Left,Left
2,LR-LS,34,351.5500900763313,1,Left,Left
2,LR-LS,35,298.01460238918963,1,Left,Left
2,LR-LS,36,304.81652870008594,1,Left,Left
2,LR-LS,37,277.5891413276807,1,Left,Left
2,LR-LS,38,345.5532115568584,1,Left,Left
2,LR-LS,39,315.25474436723437,1,Left,Left
2,LR-LS,40,301.22488461348155,1,Left,Left
2,LR-RS,1,358.70992460691053,1,Right,Left
2,LR-RS,2,294.5334278160896,1,Right,Left
2,LR-RS,3,304.94979015856956,1,Right,Left
2,LR-RS,4,256.86953601969736,1,Right,Left
2,LR-RS,5,313.04240531710775,1,Right,Left
2,LR-RS,6,358.70076686933976,1,Right,Left
2,LR-RS,7,339.643867022387,1,Right,Left
2,LR-RS,8,330.8169977088201,1,Right,Left
2,LR-RS,9,268.22852512759613,0,Right,Left
2,LR-RS,10,350.83109195814643,1,Right,Left
2,LR-RS,11,326.6189514455132,1,Right,Left
2,LR-RS,12,223.4115251956299,1,Right,Left
2,LR-RS,13,367.83457909977506,1,Right,Left
2,LR-RS,14,260.0455225668665,1,Right,Left
2,LR-RS,15,258.4126565673371,0,Right,Left
2,LR-RS,16,291.4238146971559,1,Right,Left
2,LR-RS,17,336.07863707675205,1,Right,Left
2,LR-RS,18,457.47126390320375,1,Right,Left
2,LR-RS,19,316.4254649814373,1,Right,Left
2,LR-RS,20,294.34869279987964,1,Right,Left
2,LR-RS,21,318.4533953354653,1,Right,Left
2,LR-RS,22,299.41730581245463,1,Right,Left
2,LR-RS,23,321.6777207491993,1,Right,Left
2,LR-RS,24,231.55622573163254,1,Right,Left
2,LR-RS,25,294.9639610161223,1,Right,Left
2,LR-RS,26,284.59618255632586,0,Right,Left
2,LR-RS,27,291.61326227250476,1,Right,Left
2,LR-RS,28,279.0949813478322,1,Right,Left
2,LR-RS,29,327.8885250804642,1,Right,Left
2,LR-RS,30,304.0460271126418,0,Right,Left
2,LR-RS,31,437.11683755798265,1,Right,Left
2,LR-RS,32,248.77350724703606,1,Right,Left
2,LR-RS,33,363.3102486888193,0,Right,Left
2,LR-RS,34,366.12019627492833,1,Right,Left
2,LR-RS,35,372.89659143182655,1,Right,Left
2,LR-RS,36,283.8881919587884,1,Right,Left
2,LR-RS,37,167.70318137498666,1,Right,Left
2,LR-RS,38,309.9250088344479,1,Right,Left
2,LR-RS,39,256.28566654478567,1,Right,Left
2,LR-RS,40,311.33244407936763,1,Right,Left
2,RR-RS,1,289.55322448696427,1,Right,Right
2,RR-RS,2,307.0402486035575,1,Right,Right
2,RR-RS,3,300.7406101451523,1,Right,Right
2,RR-RS,4,306.3818470444764,1,Right,Right
2,RR-RS,5,348.68700559273583,1,Right,Right
2,RR-RS,6,347.6754073525706,1,Right,Right
2,RR-RS,7,335.4868856791212,1,Right,Right
2,RR-RS,8,338.2494884090362,1,Right,Right
2,RR-RS,9,295.432887512484,1,Right,Right
2,RR-RS,10,312.07966433561745,1,Right,Right
2,RR-RS,11,318.99552374014183,1,Right,Right
2,RR-RS,12,372.8590631102329,0,Right,Right
2,RR-RS,13,348.1067763403206,1,Right,Right
2,RR-RS,14,335.63586194130676,1,Right,Right
2,RR-RS,15,326.0349497226063,1,Right,Right
2,RR-RS,16,333.93952820803696,1,Right,Right
2,RR-RS,17,284.98179622798835,1,Right,Right
2,RR-RS,18,344.5802102149885,1,Right,Right
2,RR-RS,19,315.7477325249968,1,Right,Right
2,RR-RS,20,304.9099652045657,1,Right,Right
2,RR-RS,21,323.9982098978113,1,Right,Right
2,RR-RS,22,273.1397720219659,1,Right,Right
2,RR-RS,23,348.5543827647899,1,Right,Right
2,RR-RS,24,309.17790623479317,1,Right,Right
2,RR-RS,25,344.24580893727466,1,Right,Right
2,RR-RS,26,324.31599599732317,1,Right,Right
2,RR-RS,27,307.8889900735569,1,Right,Right
2,RR-RS,28,332.0621995677822,1,Right,Right
2,RR-RS,29,348.7899311549482,1,Right,Right
2,RR-RS,30,294.3277249341308,1,Right,Right
2,RR-RS,31,333.52160491934694,1,Right,Right
2,RR-RS,32,327.7233507216481,1,Right,Right
2,RR-RS,33,340.7366891778464,0,Right,Right
2,RR-RS,34,327.1157520828896,1,Right,Right
2,RR-RS,35,312.15113169334387,1,Right,Right
2,RR-RS,36,297.4421655408387,1,Right,Right
2,RR-RS,37,294.25031632300056,1,Right,Right
2,RR-RS,38,301.67572557656376,1,Right,Right
2,RR-RS,39,382.6099913266984,1,Right,Right
2,RR-RS,40,296.7410421825593,1,Right,Right
2,RR-LS,1,337.86200781849266,0,Left,Right
2,RR-LS,2,389.3160525493618,1,Left,Right
2,RR-LS,3,331.6622175215228,1,Left,Right
2,RR-LS,4,335.662265717486,1,Left,Right
2,RR-LS,5,406.1984300123722,1,Left,Right
2,RR-LS,6,225.48628777361884,1,Left,Right
2,RR-LS,7,328.4731072086806,1,Left,Right
2,RR-LS,8,352.385432168325,0,Left,Right
2,RR-LS,9,394.49933887681107,1,Left,Right
2,RR-LS,10,356.0748249018952,1,Left,Right
2,RR-LS,11,244.13873044605953,0,Left,Right
2,RR-LS,12,261.15585861686986,1,Left,Right
2,RR-LS,13,266.7416559250247,1,Left,Right
2,RR-LS,14,342.0662432926165,1,Left,Right
2,RR-LS,15,423.7189464156504,1,Left,Right
2,RR-LS,16,269.46947205449055,1,Left,Right
2,RR-LS,17,214.34697298821575,1,Left,Right
2,RR-LS,18,379.2037309575044,1,Left,Right
2,RR-LS,19,315.66792604493736,1,Left,Right
2,RR-LS,20,439.20240568930643,0,Left,Right
2,RR-LS,21,330.57556758097195,1,Left,Right
2,RR-LS,22,306.935392571747,0,Left,Right
2,RR-LS,23,270.58215178217586,1,Left,Right
2,RR-LS,24,373.7239114996796,1,Left,Right
2,RR-LS,25,313.60324044912807,1,Left,Right
2,RR-LS,26,293.41323214052176,1,Left,Right
2,RR-LS,27,352.03548120767346,1,Left,Right
2,RR-LS,28,302.99196342733217,1,Left,Right
2,RR-LS,29,336.39745953692267,1,Left,Right
2,RR-LS,30,288.3099236434222,1,Left,Right
2,RR-LS,31,388.07002726766694,1,Left,Right
2,RR-LS,32,327.14633679444546,1,Left,Right
2,RR-LS,33,313.054643561366,1,Left,Right
2,RR-LS,34,263.5512277162934,1,Left,Right
2,RR-LS,35,350.56470085012586,1,Left,Right
2,RR-LS,36,267.0005932466544,1,Left,Right
2,RR-LS,37,395.74199016250054,1,Left,Right
2,RR-LS,38,413.7386487537959,1,Left,Right
2,RR-LS,39,337.2181381967862,1,Left,Right
2,RR-LS,40,349.1343794441868,1,Left,Right
3,LR-LS,1,307.77134481736346,1,Left,Left
3,LR-LS,2,277.58835644859994,1,Left,Left
3,LR-LS,3,306.66139303505236,1,Left,Left
3,LR-LS,4,305.95224783447475,1,Left,Left
3,LR-LS,5,291.55440795091954,1,Left,Left
3,LR-LS,6,335.37466601298934,1,Left,Left
3,LR-LS,7,304.30504997692617,1,Left,Left
3,LR-LS,8,276.126300050761,1,Left,Left
3,LR-LS,9,303.3311888521907,1,Left,Left
3,LR-LS,10,360.749519823386,1,Left,Left
3,LR-LS,11,297.74879036055984,1,Left,Left
3,LR-LS,12,307.43935671865205,1,Left,Left
3,LR-LS,13,327.91804512535316,1,Left,Left
3,LR-LS,14,328.5937610999607,1,Left,Left
3,LR-LS,15,332.06444722300404,0,Left,Left
3,LR-LS,16,336.21624451762267,1,Left,Left
3,LR-LS,17,323.7329722397287,1,Left,Left
3,LR-LS,18,295.1643496769091,0,Left,Left
3,LR-LS,19,337.08223518038966,1,Left,Left
3,LR-LS,20,307.0031168385617,1,Left,Left
3,LR-LS,21,360.86337705992605,1,Left,Left
3,LR-LS,22,383.42415847483466,1,Left,Left
3,LR-LS,23,328.7923322065913,1,Left,Left
3,LR-LS,24,342.4363183459485,1,Left,Left
3,LR-LS,25,345.3942576406008,1,Left,Left
3,LR-LS,26,306.0184048475521,1,Left,Left
3,LR-LS,27,303.45829739165987,0,Left,Left
3,LR-LS,28,339.5229244000555,1,Left,Left
3,LR-LS,29,354.1246945616875,1,Left,Left
3,LR-LS,30,331.72053730515364,1,Left,Left
3,LR-LS,31,332.7574355049492,1,Left,Left
3,LR-LS,32,319.51672305417367,1,Left,Left
3,LR-LS,33,340.44355142424735,1,Left,Left
3,LR-LS,34,288.9027971967093,1,Left,Left
3,LR-LS,35,314.3408521750517,1,Left,Left
3,LR-LS,36,326.10376998375096,1,Left,Left
3,LR-LS,37,349.9692626536891,1,Left,Left
3,LR-LS,38,318.57690515849526,1,Left,Left
3,LR-LS,39,307.1581440985014,1,Left,Left
3,LR-LS,40,308.893320594304,1,Left,Left
3,LR-RS,1,308.7116269614544,1,Right,Left
3,LR-RS,2,362.4363825212182,1,Right,Left
3,LR-RS,3,502.9336952774446,1,Right,Left
3,LR-RS,4,258.53562612856024,1,Right,Left
3,LR-RS,5,338.0863181846091,1,Right,Left
3,LR-RS,6,383.3422266875655,0,Right,Left
3,LR-RS,7,323.91189584741124,1,Right,Left
3,LR-RS,8,360.00805560114316,1,Right,Left
3,LR-RS,9,307.1176612368346,1,Right,Left
3,LR-RS,10,275.3626022325429,1,Right,Left
3,LR-RS,11,319.700064845453,1,Right,Left
3,LR-RS,12,279.9956926268035,0,Right,Left
3,LR-RS,13,440.479847388063,1,Right,Left
3,LR-RS,14,309.7934421492773,0,Right,Left
3,LR-RS,15,387.92286023419035,1,Right,Left
3,LR-RS,16,319.86336934837084,1,Right,Left
3,LR-RS,17,387.98837816365517,1,Right,Left
3,LR-RS,18,349.9199111856032,1,Right,Left
3,LR-RS,19,411.7092191059853,1,Right,Left
3,LR-RS,20,421.9891305906528,1,Right,Left
3,LR-RS,21,318.09818629252646,1,Right,Left
3,LR-RS,22,327.4468812846236,1,Right,Left
3,LR-RS,23,325.60197443780623,1,Right,Left
3,LR-RS,24,241.75980733542798,1,Right,Left
3,LR-RS,25,378.83670198964427,1,Right,Left
3,LR-RS,26,305.2503687136009,1,Right,Left
3,LR-RS,27,355.6999420266456,1,Right,Left
3,LR-RS,28,399.4674253005028,1,Right,Left
3,LR-RS,29,285.72125741253024,1,Right,Left
3,LR-RS,30,315.4936062514191,1,Right,Left
3,LR-RS,31,351.3363907331851,1,Right,Left
3,LR-RS,32,295.4871488983083,1,Right,Left
3,LR-RS,33,343.44800739592415,1,Right,Left
3,LR-RS,34,312.5546798600429,1,Right,Left
3,LR-RS,35,397.9273493596672,1,Right,Left
3,LR-RS,36,425.4175992712933,1,Right,Left
3,LR-RS,37,320.2527641526857,1,Right,Left
3,LR-RS,38,444.68897731761297,1,Right,Left
3,LR-RS,39,296.14697425736983,1,Right,Left
3,LR-RS,40,399.60053038169445,1,Right,Left
3,RR-RS,1,295.8364054898922,1,Right,Right
3,RR-RS,2,297.9469047735577,1,Right,Right
3,RR-RS,3,288.74522558357006,1,Right,Right
3,RR-RS,4,319.6407535470377,1,Right,Right
3,RR-RS,5,321.8957231117308,1,Right,Right
3,RR-RS,6,293.08879978597406,1,Right,Right
3,RR-RS,7,318.1838224236363,1,Right,Right
3,RR-RS,8,339.96815559813103,1,Right,Right
3,RR-RS,9,298.94711884671807,1,Right,Right
3,RR-RS,10,268.42219718347707,1,Right,Right
3,RR-RS,11,293.30313271687925,1,Right,Right
3,RR-RS,12,296.79461321890363,1,Right,Right
3,RR-RS,13,314.9168878657274,1,Right,Right
3,RR-RS,14,309.85297099027963,1,Right,Right
3,RR-RS,15,318.48668016716726,1,Right,Right
3,RR-RS,16,325.37014081282433,1,Right,Right
3,RR-RS,17,289.6629373811394,1,Right,Right
3,RR-RS,18,258.7164008000103,1,Right,Right
3,RR-RS,19,307.9289832078082,1,Right,Right
3,RR-RS,20,302.7137828421526,0,Right,Right
3,RR-RS,21,332.1613042102735,1,Right,Right
3,RR-RS,22,314.3146549370315,1,Right,Right
3,RR-RS,23,281.9150299819782,1,Right,Right
3,RR-RS,24,316.87433352781886,1,Right,Right
3,RR-RS,25,201.65853382390836,1,Right,Right
3,RR-RS,26,266.0976296621566,1,Right,Right
3,RR-RS,27,275.5840101665354,1,Right,Right
3,RR-RS,28,275.13223484738324,1,Right,Right
3,RR-RS,29,325.9113015852172,1,Right,Right
3,RR-RS,30,281.8184949821926,1,Right,Right
3,RR-RS,31,310.9971833873421,1,Right,Right
3,RR-RS,32,317.623987798343,1,Right,Right
3,RR-RS,33,333.46890943774815,1,Right,Right
3,RR-RS,34,253.27247764305733,1,Right,Right
3,RR-RS,35,323.46318684687907,0,Right,Right
3,RR-RS,36,321.0351110932521,1,Right,Right
3,RR-RS,37,292.7568094626154,1,Right,Right
3,RR-RS,38,294.696042675642,1,Right,Right
3,RR-RS,39,277.48663665664566,1,Right,Right
3,RR-RS,40,232.1846079376856,1,Right,Right
3,RR-LS,1,372.1946889742664,1,Left,Right
3,RR-LS,2,303.6595935606978,1,Left,Right
3,RR-LS,3,297.09450478424634,1,Left,Right
3,RR-LS,4,331.50848111792556,1,Left,Right
3,RR-LS,5,333.6660880823806,1,Left,Right
3,RR-LS,6,304.40934029971953,1,Left,Right
3,RR-LS,7,401.39198301213116,1,Left,Right
3,RR-LS,8,408.69658438365514,1,Left,Right
3,RR-LS,9,359.9662167335895,1,Left,Right
3,RR-LS,10,409.5388220714523,1,Left,Right
3,RR-LS,11,399.2818646126344,1,Left,Right
3,RR-LS,12,287.685232058198,1,Left,Right
3,RR-LS,13,339.10158201901436,0,Left,Right
3,RR-LS,14,318.47173679140565,1,Left,Right
3,RR-LS,15,322.31986143881716,1,Left,Right
3,RR-LS,16,316.11411254519066,1,Left,Right
3,RR-LS,17,394.02337533519557,1,Left,Right
3,RR-LS,18,380.25413395004364,1,Left,Right
3,RR-LS,19,350.5772648200851,1,Left,Right
3,RR-LS,20,300.87968509226937,1,Left,Right
3,RR-LS,21,257.80085449545555,1,Left,Right
3,RR-LS,22,262.14978098905794,1,Left,Right
3,RR-LS,23,289.9378276301528,1,Left,Right
3,RR-LS,24,330.0489679332901,1,Left,Right
3,RR-LS,25,404.416717142365,1,Left,Right
3,RR-LS,26,450.2731979321033,1,Left,Right
3,RR-LS,27,279.1621270951267,1,Left,Right
3,RR-LS,28,255.27733835593912,1,Left,Right
3,RR-LS,29,396.4090232053558,1,Left,Right
3,RR-LS,30,256.0324162367603,0,Left,Right
3,RR-LS,31,295.65865526962284,1,Left,Right
3,RR-LS,32,300.0043067038365,0,Left,Right
3,RR-LS,33,296.19188575662395,1,Left,Right
3,RR-LS,34,335.93300501306624,1,Left,Right
3,RR-LS,35,313.34005797992296,1,Left,Right
3,RR-LS,36,413.84791127828345,1,Left,Right
3,RR-LS,37,407.1023703881639,1,Left,Right
3,RR-LS,38,321.1254030153299,1,Left,Right
3,RR-LS,39,280.38248068161204,1,Left,Right
3,RR-LS,40,332.1053484730884,1,Left,Right
4,LR-LS,1,341.1725612548526,1,Left,Left
4,LR-LS,2,275.4673971663192,1,Left,Left
4,LR-LS,3,315.65250888821765,1,Left,Left
4,LR-LS,4,311.66522053559356,1,Left,Left
4,LR-LS,5,289.71673173406316,1,Left,Left
4,LR-LS,6,340.3666861267637,1,Left,Left
4,LR-LS,7,272.99733362271,0,Left,Left
4,LR-LS,8,297.44289198274845,1,Left,Left
4,LR-LS,9,284.0800435664691,1,Left,Left
4,LR-LS,10,269.75897356019345,1,Left,Left
4,LR-LS,11,318.32217466697034,1,Left,Left
4,LR-LS,12,321.32385941063563,0,Left,Left
4,LR-LS,13,280.60310888807874,1,Left,Left
4,LR-LS,14,288.3701279906233,1,Left,Left
4,LR-LS,15,242.53555740657697,1,Left,Left
4,LR-LS,16,217.01339119640636,1,Left,Left
4,LR-LS,17,296.15273086537894,1,Left,Left
4,LR-LS,18,318.26608929095323,1,Left,Left
4,LR-LS,19,340.0502000678578,1,Left,Left
4,LR-LS,20,227.75860423285786,1,Left,Left
4,LR-LS,21,371.5140073406922,1,Left,Left
4,LR-LS,22,300.17614822922064,1,Left,Left
4,LR-LS,23,328.94953894130964,1,Left,Left
4,LR-LS,24,201.1428912427533,0,Left,Left
4,LR-LS,25,279.9308493839301,1,Left,Left
4,LR-LS,26,329.05174130449313,1,Left,Left
4,LR-LS,27,271.4478072874784,0,Left,Left
4,LR-LS,28,236.3004935508767,1,Left,Left
4,LR-LS,29,329.0251739900575,1,Left,Left
4,LR-LS,30,247.13754191857248,1,Left,Left
4,LR-LS,31,299.75954717330296,1,Left,Left
4,LR-LS,32,326.47688398506074,1,Left,Left
4,LR-LS,33,267.1544902608527,1,Left,Left
4,LR-LS,34,318.2471551216731,1,Left,Left
4,LR-LS,35,307.7026662444783,0,Left,Left
4,LR-LS,36,258.43861796371203,1,Left,Left
4,LR-LS,37,308.3261081941059,1,Left,Left
4,LR-LS,38,342.4091757567653,1,Left,Left
4,LR-LS,39,238.9468280641841,1,Left,Left
4,LR-LS,40,278.5557326140954,1,Left,Left
4,LR-RS,1,380.1752975671302,1,Right,Left
4,LR-RS,2,404.8094556986653,1,Right,Left
4,LR-RS,3,316.07060579912894,0,Right,Left
4,LR-RS,4,368.8204330415589,1,Right,Left
4,LR-RS,5,352.243336918206,1,Right,Left
4,LR-RS,6,333.35012608377343,1,Right,Left
4,LR-RS,7,374.42756927432043,0,Right,Left
4,LR-RS,8,360.9568110447417,1,Right,Left
4,LR-RS,9,260.2479594770441,1,Right,Left
4,LR-RS,10,308.4378377428006,1,Right,Left
4,LR-RS,11,378.8783372815916,1,Right,Left
4,LR-RS,12,299.1696271311698,1,Right,Left
4,LR-RS,13,298.1568527483191,1,Right,Left
4,LR-RS,14,305.90827921788645,1,Right,Left
4,LR-RS,15,348.4307339823923,1,Right,Left
4,LR-RS,16,289.96097086464766,1,Right,Left
4,LR-RS,17,343.3677000851987,0,Right,Left
4,LR-RS,18,292.7717562072578,1,Right,Left
4,LR-RS,19,399.54630899862025,1,Right,Left
4,LR-RS,20,352.34721357969863,1,Right,Left
4,LR-RS,21,378.69058584754333,1,Right,Left
4,LR-RS,22,331.04916887111455,0,Right,Left
4,LR-RS,23,307.0974548652464,1,Right,Left
4,LR-RS,24,372.40227435515646,1,Right,Left
4,LR-RS,25,356.99610865937365,1,Right,Left
4,LR-RS,26,350.33654107827863,0,Right,Left
4,LR-RS,27,350.79149232150377,1,Right,Left
4,LR-RS,28,324.31114565058056,1,Right,Left
4,LR-RS,29,299.89356877354146,1,Right,Left
4,LR-RS,30,231.1894850526922,1,Right,Left
4,LR-RS,31,362.7032921361026,1,Right,Left
4,LR-RS,32,330.27878380191765,1,Right,Left
4,LR-RS,33,285.04445348791353,1,Right,Left
4,LR-RS,34,324.508945137148,1,Right,Left
4,LR-RS,35,349.45592576791614,1,Right,Left
4,LR-RS,36,338.44541285296714,1,Right,Left
4,LR-RS,37,317.8403304085204,1,Right,Left
4,LR-RS,38,369.0297648570791,1,Right,Left
4,LR-RS,39,375.1169905692418,1,Right,Left
4,LR-RS,40,401.2660759212761,1,Right,Left
4,RR-RS,1,311.27602444766586,1,Right,Right
4,RR-RS,2,314.32782413877624,1,Right,Right
4,RR-RS,3,295.6979011382305,1,Right,Right
4,RR-RS,4,224.5321696542993,1,Right,Right
4,RR-RS,5,263.61722178477544,1,Right,Right
4,RR-RS,6,295.6408383552543,1,Right,Right
4,RR-RS,7,316.85741240297983,1,Right,Right
4,RR-RS,8,313.6489557300014,1,Right,Right
4,RR-RS,9,276.84017348578845,1,Right,Right
4,RR-RS,10,224.40527353154422,1,Right,Right
4,RR-RS,11,280.01733087996934,1,Right,Right
4,RR-RS,12,312.7790190340839,1,Right,Right
4,RR-RS,13,319.163823442528,1,Right,Right
4,RR-RS,14,313.7361496030017,1,Right,Right
4,RR-RS,15,321.5378490362515,1,Right,Right
4,RR-RS,16,300.48364233696805,1,Right,Right
4,RR-RS,17,289.4898002342508,1,Right,Right
4,RR-RS,18,323.75449020648153,1,Right,Right
4,RR-RS,19,291.73956589226964,1,Right,Right
4,RR-RS,20,295.2030520507816,1,Right,Right
4,RR-RS,21,233.22787952682603,1,Right,Right
4,RR-RS,22,253.6692768685862,1,Right,Right
4,RR-RS,23,286.22693884673976,1,Right,Right
4,RR-RS,24,269.1870050081463,1,Right,Right
4,RR-RS,25,271.1134638399269,1,Right,Right
4,RR-RS,26,277.12560524249164,1,Right,Right
4,RR-RS,27,275.32911779153534,1,Right,Right
4,RR-RS,28,281.45801127957384,1,Right,Right
4,RR-RS,29,274.83973355669906,1,Right,Right
4,RR-RS,30,286.58383198595243,1,Right,Right
4,RR-RS,31,299.96396413420257,1,Right,Right
4,RR-RS,32,278.6187486116076,1,Right,Right
4,RR-RS,33,227.85360621532175,1,Right,Right
4,RR-RS,34,281.7125364993054,1,Right,Right
4,RR-RS,35,280.17597819303785,1,Right,Right
4,RR-RS,36,312.9696436911972,1,Right,Right
4,RR-RS,37,337.7887713481801,1,Right,Right
4,RR-RS,38,263.040961878105,1,Right,Right
4,RR-RS,39,261.67575135786666,0,Right,Right
4,RR-RS,40,250.4941929915766,1,Right,Right
4,RR-LS,1,385.16625958158505,1,Left,Right
4,RR-LS,2,338.31819089169267,1,Left,Right
4,RR-LS,3,382.19910006243384,1,Left,Right
4,RR-LS,4,306.220186385416,1,Left,Right
4,RR-LS,5,250.45415623852608,1,Left,Right
4,RR-LS,6,330.62086257596155,1,Left,Right
4,RR-LS,7,395.7843593159438,1,Left,Right
4,RR-LS,8,325.8618692666458,1,Left,Right
4,RR-LS,9,223.92693618888475,1,Left,Right
4,RR-LS,10,395.806592452558,1,Left,Right
4,RR-LS,11,316.88337205244915,0,Left,Right
4,RR-LS,12,360.08321412396106,1,Left,Right
4,RR-LS,13,259.1788304063373,0,Left,Right
4,RR-LS,14,366.7221795456508,1,Left,Right
4,RR-LS,15,193.99169830994498,1,Left,Right
4,RR-LS,16,297.7223569207734,1,Left,Right
4,RR-LS,17,321.5672635975891,1,Left,Right
4,RR-LS,18,291.8907380846056,1,Left,Right
4,RR-LS,19,276.41383012020435,1,Left,Right
4,RR-LS,20,423.1893892129307,1,Left,Right
4,RR-LS,21,264.4098786505079,0,Left,Right
4,RR-LS,22,270.525894453324,1,Left,Right
4,RR-LS,23,392.4571450005091,0,Left,Right
4,RR-LS,24,334.0534504731313,0,Left,Right
4,RR-LS,25,230.01341592534416,1,Left,Right
4,RR-LS,26,351.83161668951897,1,Left,Right
4,RR-LS,27,370.57376135260824,1,Left,Right
4,RR-LS,28,280.9129750641815,1,Left,Right
4,RR-LS,29,228.7263588130184,1,Left,Right
4,RR-LS,30,335.31171619564526,1,Left,Right
4,RR-LS,31,346.68689716656667,1,Left,Right
4,RR-LS,32,302.1678121075896,0,Left,Right
4,RR-LS,33,356.67842839901175,1,Left,Right
4,RR-LS,34,322.9422748403089,1,Left,Right
4,RR-LS,35,317.8314767547904,1,Left,Right
4,RR-LS,36,439.47728569913005,1,Left,Right
4,RR-LS,37,323.0705972278456,0,Left,Right
4,RR-LS,38,318.3070654862496,1,Left,Right
4,RR-LS,39,388.0613289991325,1,Left,Right
4,RR-LS,40,444.8773153766266,1,Left,Right
5,LR-LS,1,351.13508991159085,1,Left,Left
5,LR-LS,2,356.1559761438186,1,Left,Left
5,LR-LS,3,343.5752666022393,1,Left,Left
5,LR-LS,4,332.2135373110163,1,Left,Left
5,LR-LS,5,360.1660228426703,1,Left,Left
5,LR-LS,6,343.67309342391883,1,Left,Left
5,LR-LS,7,326.07136154208405,1,Left,Left
5,LR-LS,8,304.71212732514056,1,Left,Left
5,LR-LS,9,295.6225508359375,1,Left,Left
5,LR-LS,10,341.8182631417893,1,Left,Left
5,LR-LS,11,274.54916924167634,1,Left,Left
5,LR-LS,12,294.88948003946365,1,Left,Left
5,LR-LS,13,312.33913627993616,1,Left,Left
5,LR-LS,14,338.68226247021335,1,Left,Left
5,LR-LS,15,335.6547436462374,1,Left,Left
5,LR-LS,16,335.65524572935203,1,Left,Left
5,LR-LS,17,326.4072532058724,1,Left,Left
5,LR-LS,18,299.7977868806877,1,Left,Left
5,LR-LS,19,340.60119504830647,1,Left,Left
5,LR-LS,20,278.97317704241175,1,Left,Left
5,LR-LS,21,291.00775732406123,1,Left,Left
5,LR-LS,22,333.4312048302403,1,Left,Left
5,LR-LS,23,337.9562137399647,1,Left,Left
5,LR-LS,24,293.6282034833954,0,Left,Left
5,LR-LS,25,313.23381628351603,1,Left,Left
5,LR-LS,26,325.8817339441314,1,Left,Left
5,LR-LS,27,295.720607225633,1,Left,Left
5,LR-LS,28,292.8605973164554,1,Left,Left
5,LR-LS,29,291.7900766644574,1,Left,Left
5,LR-LS,30,328.24940842256456,1,Left,Left
5,LR-LS,31,337.48109119786886,1,Left,Left
5,LR-LS,32,323.19897331967763,1,Left,Left
5,LR-LS,33,360.4768937557729,1,Left,Left
5,LR-LS,34,287.36909226245774,1,Left,Left
5,LR-LS,35,367.77232487735046,1,Left,Left
5,LR-LS,36,318.5865227174713,1,Left,Left
5,LR-LS,37,310.4530467681803,1,Left,Left
5,LR-LS,38,311.4781385203372,1,Left,Left
5,LR-LS,39,320.62255670425554,1,Left,Left
5,LR-LS,40,298.0612246237961,1,Left,Left
5,LR-RS,1,391.46640880769166,1,Right,Left
5,LR-RS,2,364.56411761312984,1,Right,Left
5,LR-RS,3,335.89857019878536,1,Right,Left
5,LR-RS,4,389.39051704487815,1,Right,Left
5,LR-RS,5,428.51023059028347,1,Right,Left
5,LR-RS,6,327.9489153224856,0,Right,Left
5,LR-RS,7,385.37090987261274,1,Right,Left
5,LR-RS,8,413.818791800708,1,Right,Left
5,LR-RS,9,369.06453912858376,1,Right,Left
5,LR-RS,10,338.0994670461054,1,Right,Left
5,LR-RS,11,427.50847162411696,1,Right,Left
5,LR-RS,12,381.0697439999889,1,Right,Left
5,LR-RS,13,429.3706590122665,1,Right,Left
5,LR-RS,14,465.540731730928,1,Right,Left
5,LR-RS,15,336.2472437097433,0,Right,Left
5,LR-RS,16,350.539294460332,0,Right,Left
5,LR-RS,17,397.6323269654708,1,Right,Left
5,LR-RS,18,328.4443143150735,1,Right,Left
5,LR-RS,19,385.7215585786599,1,Right,Left
5,LR-RS,20,364.48042724147354,1,Right,Left
5,LR-RS,21,371.3094732574421,1,Right,Left
5,LR-RS,22,428.61845878383343,1,Right,Left
5,LR-RS,23,322.336953879164,1,Right,Left
5,LR-RS,24,381.5715663824106,1,Right,Left
5,LR-RS,25,360.17444156236127,1,Right,Left
5,LR-RS,26,378.8132590259537,1,Right,Left
5,LR-RS,27,411.0853905342893,1,Right,Left
5,LR-RS,28,296.69807139605507,0,Right,Left
5,LR-RS,29,396.009325840549,1,Right,Left
5,LR-RS,30,400.3940732198412,0,Right,Left
5,LR-RS,31,424.7936912688795,1,Right,Left
5,LR-RS,32,320.1258034581107,1,Right,Left
5,LR-RS,33,374.8007152298498,1,Right,Left
5,LR-RS,34,383.0335760273857,1,Right,Left
5,LR-RS,35,395.50643122027304,1,Right,Left
5,LR-RS,36,380.4540566775384,1,Right,Left
5,LR-RS,37,328.80789804808904,1,Right,Left
5,LR-RS,38,346.04472723864393,1,Right,Left
5,LR-RS,39,391.9512655486377,1,Right,Left
5,LR-RS,40,365.80232756432895,1,Right,Left
5,RR-RS,1,341.1944138718231,1,Right,Right
5,RR-RS,2,352.7488934313085,1,Right,Right
5,RR-RS,3,277.23202164180555,1,Right,Right
5,RR-RS,4,332.14331376047073,1,Right,Right
5,RR-RS,5,357.330390036589,1,Right,Right
5,RR-RS,6,327.32930755939407,1,Right,Right
5,RR-RS,7,285.2352303615589,1,Right,Right
5,RR-RS,8,308.22503765924705,1,Right,Right
5,RR-RS,9,303.1416570780052,1,Right,Right
5,RR-RS,10,266.75580109624855,1,Right,Right
5,RR-RS,11,307.5636599126255,1,Right,Right
5,RR-RS,12,303.3612894415431,1,Right,Right
5,RR-RS,13,377.13612429774554,1,Right,Right
5,RR-RS,14,301.10111867345086,1,Right,Right
5,RR-RS,15,280.195905047561,1,Right,Right
5,RR-RS,16,313.07844040096296,1,Right,Right
5,RR-RS,17,340.2114600741039,1,Right,Right
5,RR-RS,18,359.9490991888455,1,Right,Right
5,RR-RS,19,354.45294342452394,1,Right,Right
5,RR-RS,20,287.6316086138046,1,Right,Right
5,RR-RS,21,335.63010871277845,1,Right,Right
5,RR-RS,22,353.0491053791041,1,Right,Right
5,RR-RS,23,333.92953061885635,1,Right,Right
5,RR-RS,24,306.0101356467742,1,Right,Right
5,RR-RS,25,338.0082821756754,1,Right,Right
5,RR-RS,26,316.7596986722262,1,Right,Right
5,RR-RS,27,306.8487579770217,1,Right,Right
5,RR-RS,28,301.49609237571514,1,Right,Right
5,RR-RS,29,355.14355722468616,1,Right,Right
5,RR-RS,30,331.49964587813525,0,Right,Right
5,RR-RS,31,342.4695586155714,1,Right,Right
5,RR-RS,32,319.89530747288,1,Right,Right
5,RR-RS,33,350.05426996363616,1,Right,Right
5,RR-RS,34,320.2667420149622,1,Right,Right
5,RR-RS,35,310.4810614821267,1,Right,Right
5,RR-RS,36,335.66551095644553,1,Right,Right
5,RR-RS,37,387.3829324090728,1,Right,Right
5,RR-RS,38,318.2255664054471,1,Right,Right
5,RR-RS,39,307.95434821905826,1,Right,Right
5,RR-RS,40,305.5185234697475,1,Right,Right
5,RR-LS,1,333.9236603412689,0,Left,Right
5,RR-LS,2,400.36526386556335,1,Left,Right
5,RR-LS,3,330.2366336582043,1,Left,Right
5,RR-LS,4,329.7556213947448,1,Left,Right
5,RR-LS,5,429.051425170702,1,Left,Right
5,RR-LS,6,301.1642476719658,1,Left,Right
5,RR-LS,7,365.39080628214055,0,Left,Right
5,RR-LS,8,391.4808779212485,1,Left,Right
5,RR-LS,9,309.9209866479114,1,Left,Right
5,RR-LS,10,306.49019901872896,1,Left,Right
5,RR-LS,11,359.8028300581912,1,Left,Right
5,RR-LS,12,417.75108432211914,0,Left,Right
5,RR-LS,13,291.93569665256325,0,Left,Right
5,RR-LS,14,331.56369117479863,1,Left,Right
5,RR-LS,15,246.59198641603217,1,Left,Right
5,RR-LS,16,362.3773964031741,1,Left,Right
5,RR-LS,17,283.8327834665842,0,Left,Right
5,RR-LS,18,346.3337307539426,1,Left,Right
5,RR-LS,19,303.83776642136974,1,Left,Right
5,RR-LS,20,255.99188063755304,1,Left,Right
5,RR-LS,21,299.038983026627,1,Left,Right
5,RR-LS,22,455.26439176647585,1,Left,Right
5,RR-LS,23,289.43852367390326,1,Left,Right
5,RR-LS,24,299.26863078998065,1,Left,Right
5,RR-LS,25,351.5330236163719,1,Left,Right
5,RR-LS,26,426.4196527633417,1,Left,Right
5,RR-LS,27,315.91340856997533,1,Left,Right
5,RR-LS,28,220.68565362284178,1,Left,Right
5,RR-LS,29,254.28066286949195,1,Left,Right
5,RR-LS,30,318.87543135011316,1,Left,Right
5,RR-LS,31,299.20827661306316,0,Left,Right
5,RR-LS,32,284.9953001618035,1,Left,Right
5,RR-LS,33,361.45436384728356,1,Left,Right
5,RR-LS,34,487.55784876792933,1,Left,Right
5,RR-LS,35,368.99713324976517,1,Left,Right
5,RR-LS,36,278.37858776291006,1,Left,Right
5,RR-LS,37,263.5155407689617,1,Left,Right
5,RR-LS,38,360.87812621479566,1,Left,Right
5,RR-LS,39,324.48204100581347,0,Left,Right
5,RR-LS,40,336.8210997580366,1,Left,Right
6,LR-LS,1,315.841482469965,1,Left,Left
6,LR-LS,2,277.0173293474574,1,Left,Left
6,LR-LS,3,302.8909099730372,1,Left,Left
6,LR-LS,4,305.88177348705625,1,Left,Left
6,LR-LS,5,271.28871740311564,1,Left,Left
6,LR-LS,6,369.52243806075364,1,Left,Left
6,LR-LS,7,330.44424813099556,1,Left,Left
6,LR-LS,8,312.09149875211284,1,Left,Left
6,LR-LS,9,311.6067930693059,1,Left,Left
6,LR-LS,10,290.9455396966677,1,Left,Left
6,LR-LS,11,324.6631451099088,1,Left,Left
6,LR-LS,12,292.6176135326274,1,Left,Left
6,LR-LS,13,260.3997563690429,1,Left,Left
6,LR-LS,14,354.2328706504637,1,Left,Left
6,LR-LS,15,319.45046091375406,1,Left,Left
6,LR-LS,16,306.11555982979854,1,Left,Left
6,LR-LS,17,315.40011491031214,1,Left,Left
6,LR-LS,18,258.0624462328091,1,Left,Left
6,LR-LS,19,284.3301665262486,1,Left,Left
6,LR-LS,20,296.850733275015,1,Left,Left
6,LR-LS,21,264.2911573961037,1,Left,Left
6,LR-LS,22,292.7629159870581,1,Left,Left
6,LR-LS,23,322.0469872761147,1,Left,Left
6,LR-LS,24,360.2204417628188,1,Left,Left
6,LR-LS,25,281.3703338309673,1,Left,Left
6,LR-LS,26,323.8471160264735,1,Left,Left
6,LR-LS,27,282.3491969825023,1,Left,Left
6,LR-LS,28,316.231475193447,1,Left,Left
6,LR-LS,29,317.5870532758498,1,Left,Left
6,LR-LS,30,237.50113488192716,1,Left,Left
6,LR-LS,31,311.41139243534457,1,Left,Left
6,LR-LS,32,311.751942410221,1,Left,Left
6,LR-LS,33,292.58019590918354,1,Left,Left
6,LR-LS,34,335.0889718918897,1,Left,Left
6,LR-LS,35,297.036477000508,1,Left,Left
6,LR-LS,36,277.4020162582004,1,Left,Left
6,LR-LS,37,255.6738840054751,1,Left,Left
6,LR-LS,38,303.3953582996629,1,Left,Left
6,LR-LS,39,254.3734234253158,1,Left,Left
6,LR-LS,40,308.513082440479,1,Left,Left
6,LR-RS,1,378.3652687051606,1,Right,Left
6,LR-RS,2,311.3952871827623,1,Right,Left
6,LR-RS,3,339.43758762464086,1,Right,Left
6,LR-RS,4,403.0657634055761,1,Right,Left
6,LR-RS,5,305.0836428615038,1,Right,Left
6,LR-RS,6,313.2727875194885,1,Right,Left
6,LR-RS,7,354.47172906252143,1,Right,Left
6,LR-RS,8,361.87704546140304,1,Right,Left
6,LR-RS,9,437.11824525888863,0,Right,Left
6,LR-RS,10,306.61727366572717,1,Right,Left
6,LR-RS,11,278.0627972656523,1,Right,Left
6,LR-RS,12,352.2764698739561,1,Right,Left
6,LR-RS,13,363.0351169981548,1,Right,Left
6,LR-RS,14,344.1238348356268,1,Right,Left
6,LR-RS,15,280.75053420673794,1,Right,Left
6,LR-RS,16,325.6079803554142,0,Right,Left
6,LR-RS,17,372.08116322213493,1,Right,Left
6,LR-RS,18,319.5049899525708,1,Right,Left
6,LR-RS,19,310.11149605840683,1,Right,Left
6,LR-RS,20,381.3433810020591,0,Right,Left
6,LR-RS,21,299.05831973767476,1,Right,Left
6,LR-RS,22,308.2960977099991,1,Right,Left
6,LR-RS,23,332.96160503397846,1,Right,Left
6,LR-RS,24,304.03933054150076,1,Right,Left
6,LR-RS,25,329.3613157948505,1,Right,Left
6,LR-RS,26,291.83419974379024,1,Right,Left
6,LR-RS,27,361.18190862470044,1,Right,Left
6,LR-RS,28,362.93946559098293,1,Right,Left
6,LR-RS,29,312.1611900116618,1,Right,Left
6,LR-RS,30,320.532091252661,1,Right,Left
6,LR-RS,31,422.0964937397398,1,Right,Left
6,LR-RS,32,294.4512071366242,1,Right,Left
6,LR-RS,33,304.6329672783916,0,Right,Left
6,LR-RS,34,299.0755739682405,1,Right,Left
6,LR-RS,35,397.1687523828081,0,Right,Left
6,LR-RS,36,386.0718958736618,0,Right,Left
6,LR-RS,37,281.9772049624445,1,Right,Left
6,LR-RS,38,399.7217840707332,1,Right,Left
6,LR-RS,39,365.362662085261,1,Right,Left
6,LR-RS,40,279.1648176047995,1,Right,Left
6,RR-RS,1,285.4287847863811,1,Right,Right
6,RR-RS,2,333.5777930025463,1,Right,Right
6,RR-RS,3,229.38561256117134,1,Right,Right
6,RR-RS,4,380.4903473762846,1,Right,Right
6,RR-RS,5,248.35295337842928,1,Right,Right
6,RR-RS,6,321.54322263629416,1,Right,Right
6,RR-RS,7,290.1234967892379,1,Right,Right
6,RR-RS,8,290.1193003010353,1,Right,Right
6,RR-RS,9,311.39113981233317,1,Right,Right
6,RR-RS,10,277.08474232478085,1,Right,Right
6,RR-RS,11,285.84160116746745,1,Right,Right
6,RR-RS,12,277.763257868704,1,Right,Right
6,RR-RS,13,294.6904491273863,0,Right,Right
6,RR-RS,14,277.8039408787762,1,Right,Right
6,RR-RS,15,301.93573493075854,1,Right,Right
6,RR-RS,16,258.9313631565008,1,Right,Right
6,RR-RS,17,276.76348924941243,0,Right,Right
6,RR-RS,18,246.60675939890834,1,Right,Right
6,RR-RS,19,350.6166689775948,1,Right,Right
6,RR-RS,20,235.92920262004955,1,Right,Right
6,RR-RS,21,263.65171997263394,1,Right,Right
6,RR-RS,22,284.25032087636515,1,Right,Right
6,RR-RS,23,333.05847076151156,1,Right,Right
6,RR-RS,24,264.30165351293374,1,Right,Right
6,RR-RS,25,292.1952534898137,1,Right,Right
6,RR-RS,26,321.85943924558916,1,Right,Right
6,RR-RS,27,289.73927279587775,1,Right,Right
6,RR-RS,28,255.42490452982403,1,Right,Right
6,RR-RS,29,282.3925434311815,1,Right,Right
6,RR-RS,30,229.51754469930444,1,Right,Right
6,RR-RS,31,287.4773258736719,1,Right,Right
6,RR-RS,32,313.9710602053591,1,Right,Right
6,RR-RS,33,291.24245397721353,1,Right,Right
6,RR-RS,34,317.97712053361784,0,Right,Right
6,RR-RS,35,255.64581954291302,1,Right,Right
6,RR-RS,36,301.64759056811823,0,Right,Right
6,RR-RS,37,306.80436710797346,1,Right,Right
6,RR-RS,38,279.804331117991,1,Right,Right
6,RR-RS,39,294.47928473607476,1,Right,Right
6,RR-RS,40,282.28169810565254,1,Right,Right
6,RR-LS,1,304.91680583597486,1,Left,Right
6,RR-LS,2,368.2780473986004,0,Left,Right
6,RR-LS,3,322.0054009357767,1,Left,Right
6,RR-LS,4,310.4685156252354,1,Left,Right
6,RR-LS,5,408.8147217560554,1,Left,Right
6,RR-LS,6,367.47656796635954,1,Left,Right
6,RR-LS,7,318.84744462517415,1,Left,Right
6,RR-LS,8,401.125311387986,1,Left,Right
6,RR-LS,9,336.8733680903728,1,Left,Right
6,RR-LS,10,270.5756220939507,1,Left,Right
6,RR-LS,11,352.3763788509707,1,Left,Right
6,RR-LS,12,324.25983789832725,0,Left,Right
6,RR-LS,13,401.8539304590347,1,Left,Right
6,RR-LS,14,297.6389340965109,1,Left,Right
6,RR-LS,15,329.2921553272275,0,Left,Right
6,RR-LS,16,344.29209430218896,0,Left,Right
6,RR-LS,17,319.3782730891509,1,Left,Right
6,RR-LS,18,353.84410984141044,1,Left,Right
6,RR-LS,19,355.54783417593796,1,Left,Right
6,RR-LS,20,287.24533208997104,0,Left,Right
6,RR-LS,21,359.0205583537684,1,Left,Right
6,RR-LS,22,346.92638710831824,1,Left,Right
6,RR-LS,23,369.1898059334394,1,Left,Right
6,RR-LS,24,445.390988738053,1,Left,Right
6,RR-LS,25,394.29041620250615,1,Left,Right
6,RR-LS,26,404.5388560008551,1,Left,Right
6,RR-LS,27,415.96750778237714,1,Left,Right
6,RR-LS,28,374.5030856313405,1,Left,Right
6,RR-LS,29,348.3991960353908,1,Left,Right
6,RR-LS,30,326.8596363923612,1,Left,Right
6,RR-LS,31,369.31114723023103,0,Left,Right
6,RR-LS,32,306.08623959874757,1,Left,Right
6,RR-LS,33,279.34030589762045,1,Left,Right
6,RR-LS,34,456.83244144659545,1,Left,Right
6,RR-LS,35,359.16943966055794,1,Left,Right
6,RR-LS,36,338.0069561529178,0,Left,Right
6,RR-LS,37,411.842386048237,0,Left,Right
6,RR-LS,38,311.50295921990727,1,Left,Right
6,RR-LS,39,353.7560650421679,1,Left,Right
6,RR-LS,40,311.79464764589994,1,Left,Right
7,LR-LS,1,327.2681563988218,1,Left,Left
7,LR-LS,2,218.6627477945405,1,Left,Left
7,LR-LS,3,258.7793095745695,1,Left,Left
7,LR-LS,4,282.5378920347019,1,Left,Left
7,LR-LS,5,280.0218674485017,1,Left,Left
7,LR-LS,6,208.67089590150908,1,Left,Left
7,LR-LS,7,332.7620104798706,1,Left,Left
7,LR-LS,8,292.1915801951383,1,Left,Left
7,LR-LS,9,279.8300702360795,1,Left,Left
7,LR-LS,10,240.7348325368783,1,Left,Left
7,LR-LS,11,238.94906756127585,0,Left,Left
7,LR-LS,12,346.2427471687012,1,Left,Left
7,LR-LS,13,323.76024752830557,1,Left,Left
7,LR-LS,14,298.7086460817069,1,Left,Left
7,LR-LS,15,323.312068907673,1,Left,Left
7,LR-LS,16,294.90650780006706,1,Left,Left
7,LR-LS,17,280.57733063272696,1,Left,Left
7,LR-LS,18,314.61056407088563,1,Left,Left
7,LR-LS,19,305.74161934753766,1,Left,Left
7,LR-LS,20,281.2497517195084,1,Left,Left
7,LR-LS,21,310.9082293074422,0,Left,Left
7,LR-LS,22,296.0988829266413,1,Left,Left
7,LR-LS,23,295.82999916134753,1,Left,Left
7,LR-LS,24,290.882439613708,1,Left,Left
7,LR-LS,25,323.62135033834403,1,Left,Left
7,LR-LS,26,272.6731163313418,1,Left,Left
7,LR-LS,27,276.35856778045905,1,Left,Left
7,LR-LS,28,279.57643246663946,1,Left,Left
7,LR-LS,29,304.77358383373723,1,Left,Left
7,LR-LS,30,306.12658643508877,1,Left,Left
7,LR-LS,31,297.6198387894489,1,Left,Left
7,LR-LS,32,349.13499758832705,1,Left,Left
7,LR-LS,33,308.7862145219894,1,Left,Left
7,LR-LS,34,310.9332235636758,1,Left,Left
7,LR-LS,35,331.0420678573411,1,Left,Left
7,LR-LS,36,282.0072349763032,1,Left,Left
7,LR-LS,37,280.4526423116352,1,Left,Left
7,LR-LS,38,331.5416987235202,1,Left,Left
7,LR-LS,39,314.42299192159925,1,Left,Left
7,LR-LS,40,336.1276758308503,0,Left,Left
7,LR-RS,1,374.90572083107855,1,Right,Left
7,LR-RS,2,392.7734929986345,1,Right,Left
7,LR-RS,3,360.41607753446016,1,Right,Left
7,LR-RS,4,317.61982878530785,1,Right,Left
7,LR-RS,5,493.3926339190657,1,Right,Left
7,LR-RS,6,392.82821065954795,1,Right,Left
7,LR-RS,7,307.2476980183128,1,Right,Left
7,LR-RS,8,295.06774627960635,1,Right,Left
7,LR-RS,9,395.1740188931982,1,Right,Left
7,LR-RS,10,322.3012545097086,1,Right,Left
7,LR-RS,11,288.9781927757946,1,Right,Left
7,LR-RS,12,333.01096939918284,1,Right,Left
7,LR-RS,13,314.65351715107926,1,Right,Left
7,LR-RS,14,332.94182948303677,0,Right,Left
7,LR-RS,15,344.362218017478,0,Right,Left
7,LR-RS,16,364.1305048024733,1,Right,Left
7,LR-RS,17,453.10967631981833,1,Right,Left
7,LR-RS,18,410.8263427951769,1,Right,Left
7,LR-RS,19,390.31162789714057,1,Right,Left
7,LR-RS,20,365.9845341050535,1,Right,Left
7,LR-RS,21,309.834843428093,1,Right,Left
7,LR-RS,22,522.7770338885801,1,Right,Left
7,LR-RS,23,334.5625847293142,1,Right,Left
7,LR-RS,24,372.1414885008111,1,Right,Left
7,LR-RS,25,298.2852991052538,1,Right,Left
7,LR-RS,26,333.9745682343846,1,Right,Left
7,LR-RS,27,272.58765484990886,1,Right,Left
7,LR-RS,28,322.6588303129493,1,Right,Left
7,LR-RS,29,315.1884564753465,1,Right,Left
7,LR-RS,30,394.87813450491234,1,Right,Left
7,LR-RS,31,256.5930385291334,1,Right,Left
7,LR-RS,32,357.95131642433466,0,Right,Left
7,LR-RS,33,275.7947856736321,0,Right,Left
7,LR-RS,34,309.5640489434373,1,Right,Left
7,LR-RS,35,443.6584362833479,1,Right,Left
7,LR-RS,36,280.58410070049655,1,Right,Left
7,LR-RS,37,277.45653452161685,1,Right,Left
7,LR-RS,38,316.81132831015594,1,Right,Left
7,LR-RS,39,282.54530078678187,0,Right,Left
7,LR-RS,40,275.40589294248423,1,Right,Left
7,RR-RS,1,371.31769161091097,1,Right,Right
7,RR-RS,2,335.6022071195058,1,Right,Right
7,RR-RS,3,289.96528444643917,1,Right,Right
7,RR-RS,4,315.85008233102235,1,Right,Right
7,RR-RS,5,248.76393221076194,1,Right,Right
7,RR-RS,6,306.4837930970987,1,Right,Right
7,RR-RS,7,339.4262238082822,1,Right,Right
7,RR-RS,8,295.9109169822181,1,Right,Right
7,RR-RS,9,277.2151549489352,1,Right,Right
7,RR-RS,10,302.8717660822142,1,Right,Right
7,RR-RS,11,298.6130552538973,1,Right,Right
7,RR-RS,12,301.0856057053618,1,Right,Right
7,RR-RS,13,346.9759583038071,1,Right,Right
7,RR-RS,14,297.0393070444092,1,Right,Right
7,RR-RS,15,347.9598755455844,1,Right,Right
7,RR-RS,16,395.52912817179595,1,Right,Right
7,RR-RS,17,375.11573169769395,1,Right,Right
7,RR-RS,18,315.1961687428937,1,Right,Right
7,RR-RS,19,290.7814493085003,1,Right,Right
7,RR-RS,20,320.4366536257965,1,Right,Right
7,RR-RS,21,300.065749200107,1,Right,Right
7,RR-RS,22,303.88250616869396,1,Right,Right
7,RR-RS,23,339.6964762076644,1,Right,Right
7,RR-RS,24,283.2128064207764,1,Right,Right
7,RR-RS,25,325.775741694242,1,Right,Right
7,RR-RS,26,349.9518976960708,1,Right,Right
7,RR-RS,27,385.552816337101,1,Right,Right
7,RR-RS,28,282.79343433712575,1,Right,Right
7,RR-RS,29,378.3257755364129,1,Right,Right
7,RR-RS,30,301.99543687467775,1,Right,Right
7,RR-RS,31,352.86057846255846,1,Right,Right
7,RR-RS,32,322.2897824480388,1,Right,Right
7,RR-RS,33,338.1160007246227,1,Right,Right
7,RR-RS,34,313.7668776279463,1,Right,Right
7,RR-RS,35,318.18917371992796,1,Right,Right
7,RR-RS,36,301.46715120186093,1,Right,Right
7,RR-RS,37,364.2737995531657,1,Right,Right
7,RR-RS,38,388.137086986202,1,Right,Right
7,RR-RS,39,256.1358061509718,1,Right,Right
7,RR-RS,40,292.3829487255585,1,Right,Right
7,RR-LS,1,344.3439476046355,1,Left,Right
7,RR-LS,2,278.0013297432513,1,Left,Right
7,RR-LS,3,366.7513050521044,1,Left,Right
7,RR-LS,4,335.97798275485326,1,Left,Right
7,RR-LS,5,299.5458738443338,1,Left,Right
7,RR-LS,6,339.9084584688983,1,Left,Right
7,RR-LS,7,399.31481331294776,1,Left,Right
7,RR-LS,8,391.0207416616061,1,Left,Right
7,RR-LS,9,372.11226975594474,1,Left,Right
7,RR-LS,10,384.07986943528374,1,Left,Right
7,RR-LS,11,367.6669276523228,1,Left,Right
7,RR-LS,12,328.20570243613895,1,Left,Right
7,RR-LS,13,319.2671326667777,1,Left,Right
7,RR-LS,14,385.25574672412563,1,Left,Right
7,RR-LS,15,400.0845629785348,1,Left,Right
7,RR-LS,16,340.18210210136743,1,Left,Right
7,RR-LS,17,335.3577496969286,1,Left,Right
7,RR-LS,18,263.9611619348922,0,Left,Right
7,RR-LS,19,342.94772080263334,1,Left,Right
7,RR-LS,20,338.7417355888502,1,Left,Right
7,RR-LS,21,275.76397830106623,1,Left,Right
7,RR-LS,22,276.1972614439518,1,Left,Right
7,RR-LS,23,324.60959858042844,0,Left,Right
7,RR-LS,24,341.95199354926757,0,Left,Right
7,RR-LS,25,377.3974071382931,1,Left,Right
7,RR-LS,26,303.77726992712024,1,Left,Right
7,RR-LS,27,314.616403310031,1,Left,Right
7,RR-LS,28,282.1292882940087,1,Left,Right
7,RR-LS,29,411.3534768560867,1,Left,Right
7,RR-LS,30,314.8431401111644,1,Left,Right
7,RR-LS,31,305.6420311352417,1,Left,Right
7,RR-LS,32,356.1272601607064,1,Left,Right
7,RR-LS,33,334.0602045664292,1,Left,Right
7,RR-LS,34,366.5267480023754,1,Left,Right
7,RR-LS,35,366.00178418287885,0,Left,Right
7,RR-LS,36,337.30717170825045,1,Left,Right
7,RR-LS,37,353.34371159923006,1,Left,Right
7,RR-LS,38,297.9308840292177,1,Left,Right
7,RR-LS,39,365.9193896984175,1,Left,Right
7,RR-LS,40,356.8234096136715,1,Left,Right
8,LR-LS,1,306.17434915209685,1,Left,Left
8,LR-LS,2,256.2843506896219,1,Left,Left
8,LR-LS,3,244.16684141310486,1,Left,Left
8,LR-LS,4,245.05836954033063,1,Left,Left
8,LR-LS,5,217.47385315774696,1,Left,Left
8,LR-LS,6,327.95282364642003,1,Left,Left
8,LR-LS,7,310.3489462635708,1,Left,Left
8,LR-LS,8,253.66566745677022,1,Left,Left
8,LR-LS,9,316.05413783239226,1,Left,Left
8,LR-LS,10,256.6450575139504,1,Left,Left
8,LR-LS,11,324.40890064086295,1,Left,Left
8,LR-LS,12,289.0134976772975,1,Left,Left
8,LR-LS,13,353.2000626456149,1,Left,Left
8,LR-LS,14,208.38353931048687,1,Left,Left
8,LR-LS,15,223.20934401489853,1,Left,Left
8,LR-LS,16,253.99248241015107,1,Left,Left
8,LR-LS,17,294.2045517871157,1,Left,Left
8,LR-LS,18,295.57874565188115,1,Left,Left
8,LR-LS,19,304.84247872141094,1,Left,Left
8,LR-LS,20,256.96620971587436,1,Left,Left
8,LR-LS,21,274.07077726216784,1,Left,Left
8,LR-LS,22,311.0512884630472,1,Left,Left
8,LR-LS,23,301.36269899177677,1,Left,Left
8,LR-LS,24,312.81549147414114,1,Left,Left
8,LR-LS,25,284.55519579323897,0,Left,Left
8,LR-LS,26,323.4403004668759,1,Left,Left
8,LR-LS,27,302.5900231375852,1,Left,Left
8,LR-LS,28,239.0450039982319,1,Left,Left
8,LR-LS,29,236.73347355370527,1,Left,Left
8,LR-LS,30,284.2517300978596,0,Left,Left
8,LR-LS,31,274.33504464945815,1,Left,Left
8,LR-LS,32,274.12793731892054,1,Left,Left
8,LR-LS,33,262.40965890979817,1,Left,Left
8,LR-LS,34,237.79270296581197,1,Left,Left
8,LR-LS,35,331.64678697059907,1,Left,Left
8,LR-LS,36,290.8266037163242,1,Left,Left
8,LR-LS,37,238.6433803359396,1,Left,Left
8,LR-LS,38,307.8349887852552,1,Left,Left
8,LR-LS,39,292.1766169983556,1,Left,Left
8,LR-LS,40,334.6857224933341,1,Left,Left
8,LR-RS,1,387.91138304376597,1,Right,Left
8,LR-RS,2,300.3276908641206,1,Right,Left
8,LR-RS,3,288.0281428099242,1,Right,Left
8,LR-RS,4,313.8554350932969,1,Right,Left
8,LR-RS,5,438.20446022508145,1,Right,Left
8,LR-RS,6,451.1855227197607,1,Right,Left
8,LR-RS,7,417.87470544497927,1,Right,Left
8,LR-RS,8,393.4034195456471,1,Right,Left
8,LR-RS,9,353.7513491239561,0,Right,Left
8,LR-RS,10,344.4336086810638,1,Right,Left
8,LR-RS,11,389.09698847510975,1,Right,Left
8,LR-RS,12,323.7918843028816,1,Right,Left
8,LR-RS,13,340.5300166663634,1,Right,Left
8,LR-RS,14,481.71745017127523,1,Right,Left
8,LR-RS,15,336.0192649499943,1,Right,Left
8,LR-RS,16,476.6020146527876,1,Right,Left
8,LR-RS,17,538.1824173256261,1,Right,Left
8,LR-RS,18,407.79985381286855,1,Right,Left
8,LR-RS,19,310.1310172295607,1,Right,Left
8,LR-RS,20,323.3561821402845,1,Right,Left
8,LR-RS,21,396.87930930465706,1,Right,Left
8,LR-RS,22,401.3548752459921,1,Right,Left
8,LR-RS,23,449.6360824368684,1,Right,Left
8,LR-RS,24,424.5794340562252,1,Right,Left
8,LR-RS,25,314.3063751976971,0,Right,Left
8,LR-RS,26,386.5621096255707,1,Right,Left
8,LR-RS,27,258.10056730633875,1,Right,Left
8,LR-RS,28,343.5334716291891,1,Right,Left
8,LR-RS,29,461.38966684315994,0,Right,Left
8,LR-RS,30,466.50533160500345,0,Right,Left
8,LR-RS,31,436.0169488618205,1,Right,Left
8,LR-RS,32,353.50335486505037,1,Right,Left
8,LR-RS,33,408.6058640594694,1,Right,Left
8,LR-RS,34,410.35036528638153,1,Right,Left
8,LR-RS,35,419.7313180563118,1,Right,Left
8,LR-RS,36,404.7147145439175,1,Right,Left
8,LR-RS,37,335.92051539459385,1,Right,Left
8,LR-RS,38,412.3548239322158,1,Right,Left
8,LR-RS,39,383.9862735480101,1,Right,Left
8,LR-RS,40,480.1831534195029,1,Right,Left
8,RR-RS,1,276.81307513415936,1,Right,Right
8,RR-RS,2,300.38749159633505,1,Right,Right
8,RR-RS,3,279.00750686810625,1,Right,Right
8,RR-RS,4,312.21001677555324,1,Right,Right
8,RR-RS,5,276.9945241092972,1,Right,Right
8,RR-RS,6,248.8518752418169,1,Right,Right
8,RR-RS,7,317.7901096145666,1,Right,Right
8,RR-RS,8,239.42071911997567,1,Right,Right
8,RR-RS,9,250.8980205253208,1,Right,Right
8,RR-RS,10,280.21037185396597,1,Right,Right
8,RR-RS,11,235.45815048936237,1,Right,Right
8,RR-RS,12,279.95395333630375,1,Right,Right
8,RR-RS,13,283.2610062346432,1,Right,Right
8,RR-RS,14,232.46098597384255,1,Right,Right
8,RR-RS,15,274.42285776034646,1,Right,Right
8,RR-RS,16,224.69291548355594,1,Right,Right
8,RR-RS,17,293.0006808670083,1,Right,Right
8,RR-RS,18,319.2204733327461,1,Right,Right
8,RR-RS,19,259.0491748287546,1,Right,Right
8,RR-RS,20,272.80670778831234,1,Right,Right
8,RR-RS,21,253.57813629601486,1,Right,Right
8,RR-RS,22,238.92763837792933,1,Right,Right
8,RR-RS,23,253.0480165317387,1,Right,Right
8,RR-RS,24,322.41294646736424,1,Right,Right
8,RR-RS,25,264.8442726386818,1,Right,Right
8,RR-RS,26,319.44203667201316,1,Right,Right
8,RR-RS,27,276.111212181275,1,Right,Right
8,RR-RS,28,319.62611069639837,1,Right,Right
8,RR-RS,29,300.94638435158225,1,Right,Right
8,RR-RS,30,270.16563626779566,1,Right,Right
8,RR-RS,31,303.5951421272126,1,Right,Right
8,RR-RS,32,296.834864561102,1,Right,Right
8,RR-RS,33,234.11837080550055,1,Right,Right
8,RR-RS,34,270.0665534945056,1,Right,Right
8,RR-RS,35,284.1436490008183,1,Right,Right
8,RR-RS,36,348.52484708416455,1,Right,Right
8,RR-RS,37,281.6131444548847,1,Right,Right
8,RR-RS,38,260.5169140653397,1,Right,Right
8,RR-RS,39,297.39402407794984,1,Right,Right
8,RR-RS,40,261.7594776323969,1,Right,Right
8,RR-LS,1,394.0830996105302,1,Left,Right
8,RR-LS,2,414.3235672430464,1,Left,Right
8,RR-LS,3,404.69647030459305,1,Left,Right
8,RR-LS,4,334.8940353086761,1,Left,Right
8,RR-LS,5,383.71439428983064,1,Left,Right
8,RR-LS,6,325.93679143107755,1,Left,Right
8,RR-LS,7,401.86957682130486,1,Left,Right
8,RR-LS,8,363.6525056669225,1,Left,Right
8,RR-LS,9,515.4364795139415,1,Left,Right
8,RR-LS,10,385.4177863563766,1,Left,Right
8,RR-LS,11,397.07023975742413,1,Left,Right
8,RR-LS,12,391.2915558239688,1,Left,Right
8,RR-LS,13,299.8448588847731,1,Left,Right
8,RR-LS,14,347.3981616046922,1,Left,Right
8,RR-LS,15,384.3420995133584,1,Left,Right
8,RR-LS,16,343.1841848970061,1,Left,Right
8,RR-LS,17,339.3676735105566,1,Left,Right
8,RR-LS,18,348.1147062412744,1,Left,Right
8,RR-LS,19,368.5173430242574,1,Left,Right
8,RR-LS,20,347.91176565925036,1,Left,Right
8,RR-LS,21,393.7335515105795,1,Left,Right
8,RR-LS,22,407.5394523450648,1,Left,Right
8,RR-LS,23,316.730671835563,0,Left,Right
8,RR-LS,24,325.1437585547486,1,Left,Right
8,RR-LS,25,456.83225488930395,1,Left,Right
8,RR-LS,26,436.5632753893591,1,Left,Right
8,RR-LS,27,340.5479469636912,1,Left,Right
8,RR-LS,28,437.33036729302734,0,Left,Right
8,RR-LS,29,330.61311317268064,1,Left,Right
8,RR-LS,30,343.67438866000873,1,Left,Right
8,RR-LS,31,401.12036582170225,1,Left,Right
8,RR-LS,32,394.7772864219696,0,Left,Right
8,RR-LS,33,373.81538643395555,1,Left,Right
8,RR-LS,34,457.65115158910265,1,Left,Right
8,RR-LS,35,338.7878582158636,1,Left,Right
8,RR-LS,36,405.0733856318464,1,Left,Right
8,RR-LS,37,453.9331729145333,1,Left,Right
8,RR-LS,38,345.03814697758776,1,Left,Right
8,RR-LS,39,386.4096255869923,1,Left,Right
8,RR-LS,40,332.69202885639555,1,Left,Right
9,LR-LS,1,320.39472137279506,1,Left,Left
9,LR-LS,2,339.67719038499473,0,Left,Left
9,LR-LS,3,318.2975717486586,1,Left,Left
9,LR-LS,4,328.6614441291867,1,Left,Left
9,LR-LS,5,331.12087540155386,1,Left,Left
9,LR-LS,6,341.84820689462276,1,Left,Left
9,LR-LS,7,403.7085243856459,1,Left,Left
9,LR-LS,8,308.36080572808373,1,Left,Left
9,LR-LS,9,363.76319818874623,1,Left,Left
9,LR-LS,10,310.57691594296557,1,Left,Left
9,LR-LS,11,342.2991116933394,1,Left,Left
9,LR-LS,12,323.6013974372256,1,Left,Left
9,LR-LS,13,354.55969607197875,0,Left,Left
9,LR-LS,14,358.71875062240144,1,Left,Left
9,LR-LS,15,324.1506819944894,1,Left,Left
9,LR-LS,16,303.84403144400034,1,Left,Left
9,LR-LS,17,292.86594372190694,1,Left,Left
9,LR-LS,18,336.09528597525605,1,Left,Left
9,LR-LS,19,362.6476669728555,0,Left,Left
9,LR-LS,20,355.3082391190078,1,Left,Left
9,LR-LS,21,356.8945303674157,1,Left,Left
9,LR-LS,22,322.5743704113047,1,Left,Left
9,LR-LS,23,274.08303080719134,1,Left,Left
9,LR-LS,24,308.65165470683866,1,Left,Left
9,LR-LS,25,311.26372531217623,1,Left,Left
9,LR-LS,26,341.6364205163979,1,Left,Left
9,LR-LS,27,303.61315653416887,1,Left,Left
9,LR-LS,28,297.2899142629388,1,Left,Left
9,LR-LS,29,310.5290060781895,1,Left,Left
9,LR-LS,30,334.7791480977572,0,Left,Left
9,LR-LS,31,376.9052936461114,1,Left,Left
9,LR-LS,32,323.232274293476,1,Left,Left
9,LR-LS,33,322.3766486985504,1,Left,Left
9,LR-LS,34,306.91436751466125,1,Left,Left
9,LR-LS,35,327.85646355890526,1,Left,Left
9,LR-LS,36,278.6242781959307,1,Left,Left
9,LR-LS,37,276.5511461329626,1,Left,Left
9,LR-LS,38,308.471526933755,1,Left,Left
9,LR-LS,39,302.12692004079213,1,Left,Left
9,LR-LS,40,316.6315474348545,1,Left,Left
9,LR-RS,1,355.32942930747043,1,Right,Left
9,LR-RS,2,355.77376158898903,0,Right,Left
9,LR-RS,3,278.9694145714246,1,Right,Left
9,LR-RS,4,425.77321400304777,1,Right,Left
9,LR-RS,5,277.50915680061524,1,Right,Left
9,LR-RS,6,363.5097789541166,0,Right,Left
9,LR-RS,7,397.21765047960946,1,Right,Left
9,LR-RS,8,413.73922021074844,1,Right,Left
9,LR-RS,9,363.96953350977134,1,Right,Left
9,LR-RS,10,404.20720694675714,1,Right,Left
9,LR-RS,11,418.2449149509535,1,Right,Left
9,LR-RS,12,336.67779476416206,1,Right,Left
9,LR-RS,13,442.25062351501384,1,Right,Left
9,LR-RS,14,376.17730471786837,1,Right,Left
9,LR-RS,15,414.05799526341673,0,Right,Left
9,LR-RS,16,357.19111196247275,1,Right,Left
9,LR-RS,17,400.092948442324,1,Right,Left
9,LR-RS,18,357.4142246668124,1,Right,Left
9,LR-RS,19,342.46705145566796,1,Right,Left
9,LR-RS,20,326.918578984208,1,Right,Left
9,LR-RS,21,420.00130337633954,1,Right,Left
9,LR-RS,22,437.800962970031,0,Right,Left
9,LR-RS,23,410.7995515259817,1,Right,Left
9,LR-RS,24,472.84740183245617,1,Right,Left
9,LR-RS,25,340.01476384223065,0,Right,Left
9,LR-RS,26,362.80286783029885,1,Right,Left
9,LR-RS,27,502.63426779868155,1,Right,Left
9,LR-RS,28,352.36569682964705,0,Right,Left
9,LR-RS,29,353.05048515755885,1,Right,Left
9,LR-RS,30,367.9282629278907,1,Right,Left
9,LR-RS,31,440.94907821697717,1,Right,Left
9,LR-RS,32,359.3862027537805,1,Right,Left
9,LR-RS,33,375.29008586472554,1,Right,Left
9,LR-RS,34,341.94050513658004,1,Right,Left
9,LR-RS,35,293.9603227163445,1,Right,Left
9,LR-RS,36,373.33328375765683,1,Right,Left
9,LR-RS,37,319.3566583965616,1,Right,Left
9,LR-RS,38,348.77815341767587,1,Right,Left
9,LR-RS,39,391.09817019896326,1,Right,Left
9,LR-RS,40,407.28954013266235,1,Right,Left
9,RR-RS,1,263.8349239770562,1,Right,Right
9,RR-RS,2,267.1131135143114,1,Right,Right
9,RR-RS,3,268.47484891983737,1,Right,Right
9,RR-RS,4,271.9436808886571,1,Right,Right
9,RR-RS,5,248.85415565379094,1,Right,Right
9,RR-RS,6,255.1133018632947,1,Right,Right
9,RR-RS,7,240.74636758112194,1,Right,Right
9,RR-RS,8,230.05828631802225,1,Right,Right
9,RR-RS,9,309.45735764538114,1,Right,Right
9,RR-RS,10,241.15251026221358,1,Right,Right
9,RR-RS,11,242.89502078165728,1,Right,Right
9,RR-RS,12,303.1998012845246,1,Right,Right
9,RR-RS,13,242.4015288193101,1,Right,Right
9,RR-RS,14,275.10703114154063,1,Right,Right
9,RR-RS,15,235.31418183121013,1,Right,Right
9,RR-RS,16,257.5686631589035,1,Right,Right
9,RR-RS,17,294.4597384065735,1,Right,Right
9,RR-RS,18,265.1212384973721,1,Right,Right
9,RR-RS,19,313.1225837147942,1,Right,Right
9,RR-RS,20,273.6525073095385,1,Right,Right
9,RR-RS,21,226.87579431490013,1,Right,Right
9,RR-RS,22,217.5759907565747,1,Right,Right
9,RR-RS,23,281.0145579460777,1,Right,Right
9,RR-RS,24,251.75407052386177,1,Right,Right
9,RR-RS,25,290.33284183570163,1,Right,Right
9,RR-RS,26,294.16109176027646,1,Right,Right
9,RR-RS,27,229.10618165765135,1,Right,Right
9,RR-RS,28,234.44095926135958,1,Right,Right
9,RR-RS,29,342.6251698377964,1,Right,Right
9,RR-RS,30,265.323588166565,1,Right,Right
9,RR-RS,31,268.7710290425683,1,Right,Right
9,RR-RS,32,284.07671631628483,0,Right,Right
9,RR-RS,33,245.4350989910985,1,Right,Right
9,RR-RS,34,290.8691940876164,1,Right,Right
9,RR-RS,35,311.15277625926,1,Right,Right
9,RR-RS,36,280.55675230837255,0,Right,Right
9,RR-RS,37,251.40423225802564,1,Right,Right
9,RR-RS,38,246.7894149672017,1,Right,Right
9,RR-RS,39,229.05071501237273,1,Right,Right
9,RR-RS,40,318.2261902733095,1,Right,Right
9,RR-LS,1,350.1789562293438,1,Left,Right
9,RR-LS,2,392.8058029953256,1,Left,Right
9,RR-LS,3,408.5184693518681,1,Left,Right
9,RR-LS,4,372.29798991801374,1,Left,Right
9,RR-LS,5,354.29255524406693,1,Left,Right
9,RR-LS,6,423.9158130382151,1,Left,Right
9,RR-LS,7,289.61929730367643,1,Left,Right
9,RR-LS,8,282.1221587162246,1,Left,Right
9,RR-LS,9,368.3290305967,1,Left,Right
9,RR-LS,10,327.9197526966395,1,Left,Right
9,RR-LS,11,319.48264835138565,1,Left,Right
9,RR-LS,12,315.7274083306912,0,Left,Right
9,RR-LS,13,392.7239043228308,1,Left,Right
9,RR-LS,14,371.55083350146145,1,Left,Right
9,RR-LS,15,432.5656131485139,1,Left,Right
9,RR-LS,16,325.5316225301015,1,Left,Right
9,RR-LS,17,416.45482228184966,1,Left,Right
9,RR-LS,18,327.3646891351102,1,Left,Right
9,RR-LS,19,346.2065089354424,0,Left,Right
9,RR-LS,20,299.2429353813928,1,Left,Right
9,RR-LS,21,320.0484239655748,1,Left,Right
9,RR-LS,22,304.8765860061154,1,Left,Right
9,RR-LS,23,339.3135181461176,1,Left,Right
9,RR-LS,24,315.5896293494483,1,Left,Right
9,RR-LS,25,325.8123155273529,1,Left,Right
9,RR-LS,26,326.22260465650857,1,Left,Right
9,RR-LS,27,321.1155315163321,1,Left,Right
9,RR-LS,28,399.56110138840813,1,Left,Right
9,RR-LS,29,316.929455822189,1,Left,Right
9,RR-LS,30,426.1473049520907,0,Left,Right
9,RR-LS,31,343.41239347400426,1,Left,Right
9,RR-LS,32,470.7340732426902,1,Left,Right
9,RR-LS,33,275.1050732440415,1,Left,Right
9,RR-LS,34,367.7154240522069,1,Left,Right
9,RR-LS,35,393.2356868548957,1,Left,Right
9,RR-LS,36,429.9458686752362,1,Left,Right
9,RR-LS,37,322.3588251903651,1,Left,Right
9,RR-LS,38,409.4551068770826,1,Left,Right
9,RR-LS,39,376.9147432486016,1,Left,Right
9,RR-LS,40,286.76775228781463,0,Left,Right
10,LR-LS,1,318.5425011725469,1,Left,Left
10,LR-LS,2,353.3541370515216,1,Left,Left
10,LR-LS,3,296.9763327369946,1,Left,Left
10,LR-LS,4,328.1560343601296,0,Left,Left
10,LR-LS,5,340.2372379185964,1,Left,Left
10,LR-LS,6,314.1894262704696,1,Left,Left
10,LR-LS,7,301.4457514185441,1,Left,Left
10,LR-LS,8,291.5820084311882,1,Left,Left
10,LR-LS,9,356.8541121417125,1,Left,Left
10,LR-LS,10,304.7630990445907,1,Left,Left
10,LR-LS,11,323.1625483065411,1,Left,Left
10,LR-LS,12,330.8384445010225,1,Left,Left
10,LR-LS,13,281.2040202404685,1,Left,Left
10,LR-LS,14,347.8145355569895,1,Left,Left
10,LR-LS,15,339.7074832348157,1,Left,Left
10,LR-LS,16,310.78775524846327,1,Left,Left
10,LR-LS,17,323.76538813753814,1,Left,Left
10,LR-LS,18,261.52313023012147,1,Left,Left
10,LR-LS,19,329.4127173571957,1,Left,Left
10,LR-LS,20,318.84173849824134,1,Left,Left
10,LR-LS,21,352.0538969463753,1,Left,Left
10,LR-LS,22,377.73959753930365,1,Left,Left
10,LR-LS,23,312.90465882009124,1,Left,Left
10,LR-LS,24,338.99588515306584,1,Left,Left
10,LR-LS,25,348.0149247776045,1,Left,Left
10,LR-LS,26,343.94184652669344,0,Left,Left
10,LR-LS,27,324.45265878801,1,Left,Left
10,LR-LS,28,344.325174430653,1,Left,Left
10,LR-LS,29,322.0377407944259,1,Left,Left
10,LR-LS,30,293.18568695362546,1,Left,Left
10,LR-LS,31,317.3481022147611,1,Left,Left
10,LR-LS,32,271.9793669215271,1,Left,Left
10,LR-LS,33,278.8521357752547,1,Left,Left
10,LR-LS,34,286.31368129558825,1,Left,Left
10,LR-LS,35,339.49826677762996,1,Left,Left
10,LR-LS,36,320.6384519411401,1,Left,Left
10,LR-LS,37,334.2054233323163,1,Left,Left
10,LR-LS,38,365.91890479881994,1,Left,Left
10,LR-LS,39,342.0705765719124,1,Left,Left
10,LR-LS,40,332.4568091688563,1,Left,Left
10,LR-RS,1,350.57296253943633,1,Right,Left
10,LR-RS,2,312.8467671260407,1,Right,Left
10,LR-RS,3,314.32485897626646,1,Right,Left
10,LR-RS,4,301.704132713294,1,Right,Left
10,LR-RS,5,407.43265539054386,1,Right,Left
10,LR-RS,6,266.21880135831736,1,Right,Left
10,LR-RS,7,365.15456054091663,1,Right,Left
10,LR-RS,8,337.32534167063056,1,Right,Left
10,LR-RS,9,443.26145511167545,1,Right,Left
10,LR-RS,10,355.9189613705967,1,Right,Left
10,LR-RS,11,327.8860974781573,1,Right,Left
10,LR-RS,12,286.1048359431008,1,Right,Left
10,LR-RS,13,354.9908136902288,1,Right,Left
10,LR-RS,14,378.14379585873604,1,Right,Left
10,LR-RS,15,321.98582180705046,1,Right,Left
10,LR-RS,16,371.2879145750604,0,Right,Left
10,LR-RS,17,255.24783970071056,1,Right,Left
10,LR-RS,18,342.04943081852116,0,Right,Left
10,LR-RS,19,294.21716508253536,1,Right,Left
10,LR-RS,20,236.4208822271794,1,Right,Left
10,LR-RS,21,420.91861770173284,0,Right,Left
10,LR-RS,22,367.4961363476186,1,Right,Left
10,LR-RS,23,286.3120392768672,1,Right,Left
10,LR-RS,24,273.4534664374226,1,Right,Left
10,LR-RS,25,332.7948860731573,1,Right,Left
10,LR-RS,26,321.69598292593435,1,Right,Left
10,LR-RS,27,266.5033730856553,1,Right,Left
10,LR-RS,28,291.4158175860914,1,Right,Left
10,LR-RS,29,263.61936085553094,1,Right,Left
10,LR-RS,30,373.65653968230373,1,Right,Left
10,LR-RS,31,382.733111767942,1,Right,Left
10,LR-RS,32,222.52390752713268,1,Right,Left
10,LR-RS,33,231.31069784233364,1,Right,Left
10,LR-RS,34,356.3259994287497,1,Right,Left
10,LR-RS,35,388.6436875031457,1,Right,Left
10,LR-RS,36,343.9657662922552,1,Right,Left
10,LR-RS,37,258.1752463310021,1,Right,Left
10,LR-RS,38,229.31603204027022,1,Right,Left
10,LR-RS,39,380.64448449689894,1,Right,Left
10,LR-RS,40,373.9919062777019,1,Right,Left
10,RR-RS,1,342.5165192467121,1,Right,Right
10,RR-RS,2,257.6359560785396,1,Right,Right
10,RR-RS,3,362.4209781212018,1,Right,Right
10,RR-RS,4,392.1551271967571,1,Right,Right
10,RR-RS,5,295.4557423941552,1,Right,Right
10,RR-RS,6,363.09425733797906,1,Right,Right
10,RR-RS,7,300.7596077502741,1,Right,Right
10,RR-RS,8,307.31629471317495,1,Right,Right
10,RR-RS,9,335.9260803581882,1,Right,Right
10,RR-RS,10,327.18885869442903,1,Right,Right
10,RR-RS,11,361.7114693060968,1,Right,Right
10,RR-RS,12,393.7608350921961,1,Right,Right
10,RR-RS,13,309.8470091524539,1,Right,Right
10,RR-RS,14,322.1604103053392,1,Right,Right
10,RR-RS,15,330.0931611857111,1,Right,Right
10,RR-RS,16,320.3161016187388,1,Right,Right
10,RR-RS,17,342.7796705969108,1,Right,Right
10,RR-RS,18,261.03166637456263,1,Right,Right
10,RR-RS,19,367.4784461019682,1,Right,Right
10,RR-RS,20,336.78605688642944,1,Right,Right
10,RR-RS,21,298.92618732560413,1,Right,Right
10,RR-RS,22,339.58446178266036,1,Right,Right
10,RR-RS,23,324.97637382973045,1,Right,Right
10,RR-RS,24,382.58452742975373,1,Right,Right
10,RR-RS,25,358.4135540404644,1,Right,Right
10,RR-RS,26,358.77404727298847,1,Right,Right
10,RR-RS,27,322.28438869913487,1,Right,Right
10,RR-RS,28,371.80769823747096,1,Right,Right
10,RR-RS,29,373.1883893350939,1,Right,Right
10,RR-RS,30,331.9639137369164,1,Right,Right
10,RR-RS,31,378.40309533091147,1,Right,Right
10,RR-RS,32,373.79219081869036,1,Right,Right
10,RR-RS,33,365.6019839517285,1,Right,Right
10,RR-RS,34,299.03742529406736,1,Right,Right
10,RR-RS,35,394.67478057744097,1,Right,Right
10,RR-RS,36,381.3094178091808,1,Right,Right
10,RR-RS,37,344.8446771416491,1,Right,Right
10,RR-RS,38,327.81441399486954,1,Right,Right
10,RR-RS,39,300.5123532394273,0,Right,Right
10,RR-RS,40,260.1951890667506,1,Right,Right
10,RR-LS,1,318.52340238775736,1,Left,Right
10,RR-LS,2,292.9029836202756,1,Left,Right
10,RR-LS,3,397.8357425973717,1,Left,Right
10,RR-LS,4,384.7923884844209,0,Left,Right
10,RR-LS,5,384.17665594507355,1,Left,Right
10,RR-LS,6,370.2396512328255,1,Left,Right
10,RR-LS,7,286.4782759454711,1,Left,Right
10,RR-LS,8,408.13411621512466,1,Left,Right
10,RR-LS,9,302.488299112866,1,Left,Right
10,RR-LS,10,447.47558984028177,1,Left,Right
10,RR-LS,11,362.12969630269885,1,Left,Right
10,RR-LS,12,409.5451333010658,1,Left,Right
10,RR-LS,13,412.86441434183484,1,Left,Right
10,RR-LS,14,391.32157153569733,1,Left,Right
10,RR-LS,15,416.6988892110543,1,Left,Right
10,RR-LS,16,371.34185626457094,1,Left,Right
10,RR-LS,17,419.02187120640235,1,Left,Right
10,RR-LS,18,445.3125819007031,0,Left,Right
10,RR-LS,19,432.1667073449524,1,Left,Right
10,RR-LS,20,326.27039415995125,1,Left,Right
10,RR-LS,21,327.147460106207,1,Left,Right
10,RR-LS,22,364.1792943538466,1,Left,Right
10,RR-LS,23,318.27303562454904,1,Left,Right
10,RR-LS,24,379.0637136145263,1,Left,Right
10,RR-LS,25,378.44055940284596,1,Left,Right
10,RR-LS,26,313.24781407372336,0,Left,Right
10,RR-LS,27,336.8809181255409,1,Left,Right
10,RR-LS,28,415.8491498577799,1,Left,Right
10,RR-LS,29,386.1922465171607,1,Left,Right
10,RR-LS,30,367.3733861658277,1,Left,Right
10,RR-LS,31,375.87303604822534,1,Left,Right
10,RR-LS,32,330.6991874733678,1,Left,Right
10,RR-LS,33,359.65297048203996,1,Left,Right
10,RR-LS,34,362.34581230292997,1,Left,Right
10,RR-LS,35,344.80699154235515,1,Left,Right
10,RR-LS,36,328.7841138172955,1,Left,Right
10,RR-LS,37,302.28331457115956,1,Left,Right
10,RR-LS,38,423.60800907117294,1,Left,Right
10,RR-LS,39,404.2195056316616,1,Left,Right
10,RR-LS,40,423.7748494043193,1,Left,Right
11,LR-LS,1,244.02961392753477,1,Left,Left
11,LR-LS,2,356.30541044037597,1,Left,Left
11,LR-LS,3,295.21956693573105,1,Left,Left
11,LR-LS,4,344.8882722976355,1,Left,Left
11,LR-LS,5,329.4104997590056,1,Left,Left
11,LR-LS,6,300.0148664810843,1,Left,Left
11,LR-LS,7,368.96283351452337,1,Left,Left
11,LR-LS,8,368.2290144692306,1,Left,Left
11,LR-LS,9,258.1330746266562,1,Left,Left
11,LR-LS,10,331.819825772805,1,Left,Left
11,LR-LS,11,281.82550934196706,1,Left,Left
11,LR-LS,12,312.30339795769606,1,Left,Left
11,LR-LS,13,367.2925565324167,1,Left,Left
11,LR-LS,14,333.63733080432036,1,Left,Left
11,LR-LS,15,302.62384195216407,1,Left,Left
11,LR-LS,16,291.45387147216286,1,Left,Left
11,LR-LS,17,295.8705668258885,1,Left,Left
11,LR-LS,18,316.4671886975061,1,Left,Left
11,LR-LS,19,340.51427215627757,1,Left,Left
11,LR-LS,20,309.9688424912599,1,Left,Left
11,LR-LS,21,311.24129706151473,1,Left,Left
11,LR-LS,22,307.4581041403265,1,Left,Left
11,LR-LS,23,347.9979877762717,1,Left,Left
11,LR-LS,24,349.1299022179285,1,Left,Left
11,LR-LS,25,343.5681149865584,0,Left,Left
11,LR-LS,26,282.19273862958613,1,Left,Left
11,LR-LS,27,330.41492874297063,1,Left,Left
11,LR-LS,28,328.7778824977388,1,Left,Left
11,LR-LS,29,283.60979671603474,1,Left,Left
11,LR-LS,30,332.879803489318,1,Left,Left
11,LR-LS,31,318.8576068053709,1,Left,Left
11,LR-LS,32,252.68124391514013,1,Left,Left
11,LR-LS,33,358.80523695348677,1,Left,Left
11,LR-LS,34,349.9878465405468,1,Left,Left
11,LR-LS,35,287.4305974859492,1,Left,Left
11,LR-LS,36,294.29028908341456,1,Left,Left
11,LR-LS,37,269.922089126293,1,Left,Left
11,LR-LS,38,363.4947837920346,1,Left,Left
11,LR-LS,39,298.1136296442834,1,Left,Left
11,LR-LS,40,279.89960896304274,1,Left,Left
11,LR-RS,1,403.83224304311597,1,Right,Left
11,LR-RS,2,341.14160968549356,1,Right,Left
11,LR-RS,3,352.5450306846426,1,Right,Left
11,LR-RS,4,387.964145515797,1,Right,Left
11,LR-RS,5,269.43975953358176,0,Right,Left
11,LR-RS,6,376.2572619482729,0,Right,Left
11,LR-RS,7,305.3996567425915,1,Right,Left
11,LR-RS,8,369.2183842421758,1,Right,Left
11,LR-RS,9,430.120139564352,1,Right,Left
11,LR-RS,10,347.79691547402905,1,Right,Left
11,LR-RS,11,362.9506027928994,0,Right,Left
11,LR-RS,12,345.9641800760377,1,Right,Left
11,LR-RS,13,295.95889925088,1,Right,Left
11,LR-RS,14,344.50869173360024,1,Right,Left
11,LR-RS,15,382.80938397370704,1,Right,Left
11,LR-RS,16,275.1990637884078,0,Right,Left
11,LR-RS,17,387.2516554976281,1,Right,Left
11,LR-RS,18,367.1805038339698,1,Right,Left
11,LR-RS,19,338.3822908137847,1,Right,Left
11,LR-RS,20,307.9853237830398,0,Right,Left
11,LR-RS,21,404.8595574700482,1,Right,Left
11,LR-RS,22,321.45320191824084,1,Right,Left
11,LR-RS,23,255.83687038724554,1,Right,Left
11,LR-RS,24,287.97556662682655,1,Right,Left
11,LR-RS,25,303.60966324380684,1,Right,Left
11,LR-RS,26,263.87991282814306,1,Right,Left
11,LR-RS,27,330.68849141661536,1,Right,Left
11,LR-RS,28,385.7339454953574,1,Right,Left
11,LR-RS,29,240.30592465551976,0,Right,Left
11,LR-RS,30,300.94718628837074,1,Right,Left
11,LR-RS,31,397.6640803089716,1,Right,Left
11,LR-RS,32,313.77070597231045,1,Right,Left
11,LR-RS,33,281.3405563405273,1,Right,Left
11,LR-RS,34,316.6881475920227,1,Right,Left
11,LR-RS,35,396.0525636991729,1,Right,Left
11,LR-RS,36,369.8171829665727,1,Right,Left
11,LR-RS,37,310.8407648966186,0,Right,Left
11,LR-RS,38,405.4903731772376,0,Right,Left
11,LR-RS,39,299.8204533546491,1,Right,Left
11,LR-RS,40,282.9968799546176,1,Right,Left
11,RR-RS,1,214.7718972463289,1,Right,Right
11,RR-RS,2,321.89341416878756,1,Right,Right
11,RR-RS,3,259.17856293801805,1,Right,Right
11,RR-RS,4,303.74698961499143,1,Right,Right
11,RR-RS,5,246.82637464485774,1,Right,Right
11,RR-RS,6,324.98955703300726,1,Right,Right
11,RR-RS,7,326.87647110539837,1,Right,Right
11,RR-RS,8,319.3144365125164,1,Right,Right
11,RR-RS,9,259.47155313422667,1,Right,Right
11,RR-RS,10,272.6875223062046,1,Right,Right
11,RR-RS,11,294.01228390249196,1,Right,Right
11,RR-RS,12,291.7077346121705,1,Right,Right
11,RR-RS,13,282.3777051551817,1,Right,Right
11,RR-RS,14,278.7545329696114,1,Right,Right
11,RR-RS,15,280.7099950768923,1,Right,Right
11,RR-RS,16,297.64754878916824,1,Right,Right
11,RR-RS,17,263.05273893169675,1,Right,Right
11,RR-RS,18,246.26447230983177,1,Right,Right
11,RR-RS,19,284.96240578398533,1,Right,Right
11,RR-RS,20,281.4770893728695,1,Right,Right
11,RR-RS,21,250.40523157424423,1,Right,Right
11,RR-RS,22,340.46071791709596,1,Right,Right
11,RR-RS,23,285.7072086314166,1,Right,Right
11,RR-RS,24,225.45174397700825,1,Right,Right
11,RR-RS,25,282.25122623068364,1,Right,Right
11,RR-RS,26,342.1823312736748,1,Right,Right
11,RR-RS,27,253.65546427497767,1,Right,Right
11,RR-RS,28,290.6850949886137,1,Right,Right
11,RR-RS,29,316.5828788106962,1,Right,Right
11,RR-RS,30,231.16659062352772,1,Right,Right
11,RR-RS,31,297.4693818333243,1,Right,Right
11,RR-RS,32,285.81267759478715,1,Right,Right
11,RR-RS,33,252.5431802938246,1,Right,Right
11,RR-RS,34,230.9700427848373,1,Right,Right
11,RR-RS,35,302.5379361292588,1,Right,Right
11,RR-RS,36,283.9520995064115,1,Right,Right
11,RR-RS,37,301.3929925849695,1,Right,Right
11,RR-RS,38,299.41404135241083,1,Right,Right
11,RR-RS,39,263.893585801811,1,Right,Right
11,RR-RS,40,309.29474500316337,1,Right,Right
11,RR-LS,1,314.5615783577153,1,Left,Right
11,RR-LS,2,347.22034807630445,1,Left,Right
11,RR-LS,3,269.856762442101,0,Left,Right
11,RR-LS,4,349.03212082871784,1,Left,Right
11,RR-LS,5,276.3984036712677,1,Left,Right
11,RR-LS,6,280.269438049582,1,Left,Right
11,RR-LS,7,353.34096702035936,1,Left,Right
11,RR-LS,8,276.2638366463975,0,Left,Right
11,RR-LS,9,348.3479681958286,1,Left,Right
11,RR-LS,10,336.72963742068083,1,Left,Right
11,RR-LS,11,270.7469644953461,1,Left,Right
11,RR-LS,12,327.04221275435066,1,Left,Right
11,RR-LS,13,335.2923833717792,1,Left,Right
11,RR-LS,14,309.8859220608928,1,Left,Right
11,RR-LS,15,427.23006935204216,1,Left,Right
11,RR-LS,16,344.9900408816144,1,Left,Right
11,RR-LS,17,375.3503941138855,1,Left,Right
11,RR-LS,18,372.5842277812301,1,Left,Right
11,RR-LS,19,328.70415394699086,1,Left,Right
11,RR-LS,20,345.9376455752635,1,Left,Right
11,RR-LS,21,304.0718366127048,1,Left,Right
11,RR-LS,22,379.93637970131135,1,Left,Right
11,RR-LS,23,287.3246809162483,1,Left,Right
11,RR-LS,24,330.22198627046936,1,Left,Right
11,RR-LS,25,407.47394424601237,1,Left,Right
11,RR-LS,26,392.34659645797876,1,Left,Right
11,RR-LS,27,242.09488722502596,1,Left,Right
11,RR-LS,28,345.2098829163021,1,Left,Right
11,RR-LS,29,383.35403643525564,1,Left,Right
11,RR-LS,30,301.80435830361375,1,Left,Right
11,RR-LS,31,318.92946965951796,1,Left,Right
11,RR-LS,32,311.9771254381961,1,Left,Right
11,RR-LS,33,391.7311390233363,1,Left,Right
11,RR-LS,34,384.0269690061744,1,Left,Right
11,RR-LS,35,288.8130627133685,1,Left,Right
11,RR-LS,36,290.88311511343716,1,Left,Right
11,RR-LS,37,319.47347700406556,1,Left,Right
11,RR-LS,38,344.7803075477402,1,Left,Right
11,RR-LS,39,261.7145615215599,1,Left,Right
11,RR-LS,40,305.10535103673544,1,Left,Right
12,LR-LS,1,313.50420676375006,1,Left,Left
12,LR-LS,2,347.43831899820896,1,Left,Left
12,LR-LS,3,322.23199732626205,1,Left,Left
12,LR-LS,4,373.66196812174434,1,Left,Left
12,LR-LS,5,355.4711974418006,1,Left,Left
12,LR-LS,6,263.65622947161825,1,Left,Left
12,LR-LS,7,285.81991193836967,1,Left,Left
12,LR-LS,8,347.35980355250587,1,Left,Left
12,LR-LS,9,311.6490653620756,1,Left,Left
12,LR-LS,10,354.60144870920817,1,Left,Left
12,LR-LS,11,323.7794197093503,1,Left,Left
12,LR-LS,12,271.5424393669189,1,Left,Left
12,LR-LS,13,320.6513769682107,1,Left,Left
12,LR-LS,14,321.08087776100416,1,Left,Left
12,LR-LS,15,273.69686337088046,1,Left,Left
12,LR-LS,16,285.21547555253767,1,Left,Left
12,LR-LS,17,310.4627352931342,1,Left,Left
12,LR-LS,18,337.25233241202625,1,Left,Left
12,LR-LS,19,334.9143250745519,1,Left,Left
12,LR-LS,20,308.3386548404268,1,Left,Left
12,LR-LS,21,300.1752057557421,1,Left,Left
12,LR-LS,22,301.9346927938981,1,Left,Left
12,LR-LS,23,342.9578532064748,1,Left,Left
12,LR-LS,24,223.87137499491703,1,Left,Left
12,LR-LS,25,298.43439550290174,1,Left,Left
12,LR-LS,26,300.20143838017697,1,Left,Left
12,LR-LS,27,326.2981423357334,1,Left,Left
12,LR-LS,28,260.04908070606575,1,Left,Left
12,LR-LS,29,364.32125426796085,1,Left,Left
12,LR-LS,30,344.1286328691602,0,Left,Left
12,LR-LS,31,260.8458780444554,1,Left,Left
12,LR-LS,32,311.3608075610814,1,Left,Left
12,LR-LS,33,253.85233017310748,1,Left,Left
12,LR-LS,34,289.3856924456086,1,Left,Left
12,LR-LS,35,362.59059209410464,1,Left,Left
12,LR-LS,36,315.6710733103606,0,Left,Left
12,LR-LS,37,338.01106286709035,0,Left,Left
12,LR-LS,38,258.7136472445342,1,Left,Left
12,LR-LS,39,349.5845631699383,1,Left,Left
12,LR-LS,40,346.39220963424583,1,Left,Left
12,LR-RS,1,379.0667104214612,1,Right,Left
12,LR-RS,2,411.4873504549067,1,Right,Left
12,LR-RS,3,401.4379185082631,1,Right,Left
12,LR-RS,4,444.8193248890539,1,Right,Left
12,LR-RS,5,430.87220065820367,1,Right,Left
12,LR-RS,6,410.0151281381346,1,Right,Left
12,LR-RS,7,366.31876056269294,1,Right,Left
12,LR-RS,8,396.99772069488773,1,Right,Left
12,LR-RS,9,238.1756824582248,1,Right,Left
12,LR-RS,10,302.56665896496474,1,Right,Left
12,LR-RS,11,452.33487039146485,1,Right,Left
12,LR-RS,12,373.4499892737851,1,Right,Left
12,LR-RS,13,324.84638503835015,0,Right,Left
12,LR-RS,14,315.4253009479676,1,Right,Left
12,LR-RS,15,441.111678503053,1,Right,Left
12,LR-RS,16,439.0404861029805,1,Right,Left
12,LR-RS,17,344.6047644425221,1,Right,Left
12,LR-RS,18,324.7761389113157,1,Right,Left
12,LR-RS,19,358.33916518627126,1,Right,Left
12,LR-RS,20,324.2985665184731,1,Right,Left
12,LR-RS,21,333.7939625079337,0,Right,Left
12,LR-RS,22,422.0342370488811,1,Right,Left
12,LR-RS,23,369.2256065797162,1,Right,Left
12,LR-RS,24,352.84298503831303,1,Right,Left
12,LR-RS,25,275.79133057532,1,Right,Left
12,LR-RS,26,301.690576637851,1,Right,Left
12,LR-RS,27,346.9457388511577,1,Right,Left
12,LR-RS,28,369.0915764767458,1,Right,Left
12,LR-RS,29,354.4778327768337,1,Right,Left
12,LR-RS,30,329.20308591972025,1,Right,Left
12,LR-RS,31,385.3123130287731,1,Right,Left
12,LR-RS,32,321.40426137727655,1,Right,Left
12,LR-RS,33,367.9828057967863,1,Right,Left
12,LR-RS,34,455.2792326436983,1,Right,Left
12,LR-RS,35,338.1095723903463,1,Right,Left
12,LR-RS,36,330.9983952417165,1,Right,Left
12,LR-RS,37,325.1813757182541,1,Right,Left
12,LR-RS,38,384.26914669176176,1,Right,Left
12,LR-RS,39,403.59701438917295,1,Right,Left
12,LR-RS,40,374.32638523555977,1,Right,Left
12,RR-RS,1,289.6905172376728,1,Right,Right
12,RR-RS,2,300.52816658245007,1,Right,Right
12,RR-RS,3,318.523400071514,1,Right,Right
12,RR-RS,4,323.12262780937607,1,Right,Right
12,RR-RS,5,288.22023419607285,1,Right,Right
12,RR-RS,6,314.00187529409544,1,Right,Right
12,RR-RS,7,322.07265482659454,1,Right,Right
12,RR-RS,8,340.5326258062759,1,Right,Right
12,RR-RS,9,311.79541484518995,1,Right,Right
12,RR-RS,10,284.52807617434905,1,Right,Right
12,RR-RS,11,253.07975169231474,1,Right,Right
12,RR-RS,12,292.27869737941427,1,Right,Right
12,RR-RS,13,293.5680375927575,1,Right,Right
12,RR-RS,14,262.43052791759294,1,Right,Right
12,RR-RS,15,343.9882711229608,1,Right,Right
12,RR-RS,16,303.7095616193181,1,Right,Right
12,RR-RS,17,298.9965182275856,1,Right,Right
12,RR-RS,18,323.79280793811836,1,Right,Right
12,RR-RS,19,291.07595436671045,1,Right,Right
12,RR-RS,20,267.0404100067652,0,Right,Right
12,RR-RS,21,330.2895728183447,1,Right,Right
12,RR-RS,22,335.9674932176258,1,Right,Right
12,RR-RS,23,325.6331224872085,1,Right,Right
12,RR-RS,24,266.0884287554693,1,Right,Right
12,RR-RS,25,280.200823857463,1,Right,Right
12,RR-RS,26,320.12052223755563,1,Right,Right
12,RR-RS,27,314.1806933953174,1,Right,Right
12,RR-RS,28,273.5493583201105,1,Right,Right
12,RR-RS,29,336.7280828059297,1,Right,Right
12,RR-RS,30,305.4280542152503,1,Right,Right
12,RR-RS,31,313.1084012895222,1,Right,Right
12,RR-RS,32,268.20839230341846,1,Right,Right
12,RR-RS,33,260.03286282537283,1,Right,Right
12,RR-RS,34,278.132272241899,1,Right,Right
12,RR-RS,35,303.3544619055007,1,Right,Right
12,RR-RS,36,288.22750134611937,1,Right,Right
12,RR-RS,37,352.34479044636254,1,Right,Right
12,RR-RS,38,271.0668459054062,0,Right,Right
12,RR-RS,39,331.327135195932,1,Right,Right
12,RR-RS,40,334.45030695560723,1,Right,Right
12,RR-LS,1,298.1349090259563,1,Left,Right
12,RR-LS,2,428.05303396033503,1,Left,Right
12,RR-LS,3,335.91096396676414,1,Left,Right
12,RR-LS,4,449.8940642642125,1,Left,Right
12,RR-LS,5,340.12372500342326,0,Left,Right
12,RR-LS,6,380.364203086155,1,Left,Right
12,RR-LS,7,165.37115821060434,1,Left,Right
12,RR-LS,8,308.1005069237113,1,Left,Right
12,RR-LS,9,252.7624133818885,1,Left,Right
12,RR-LS,10,468.75659453346213,1,Left,Right
12,RR-LS,11,338.9384157079239,0,Left,Right
12,RR-LS,12,294.8062929897335,1,Left,Right
12,RR-LS,13,358.55607601189894,1,Left,Right
12,RR-LS,14,278.29831501264687,0,Left,Right
12,RR-LS,15,247.00184173215473,1,Left,Right
12,RR-LS,16,327.4801575782994,1,Left,Right
12,RR-LS,17,349.6283621824006,1,Left,Right
12,RR-LS,18,349.85826538772875,1,Left,Right
12,RR-LS,19,402.5714779689533,1,Left,Right
12,RR-LS,20,332.46370005409005,1,Left,Right
12,RR-LS,21,314.5556118339152,1,Left,Right
12,RR-LS,22,265.7031324637733,1,Left,Right
12,RR-LS,23,292.2284411762125,1,Left,Right
12,RR-LS,24,435.30246438370125,1,Left,Right
12,RR-LS,25,372.9296437699269,1,Left,Right
12,RR-LS,26,344.0657860295333,1,Left,Right
12,RR-LS,27,332.0168710768192,1,Left,Right
12,RR-LS,28,385.0710008449034,1,Left,Right
12,RR-LS,29,323.0876549377349,1,Left,Right
12,RR-LS,30,385.184939246287,1,Left,Right
12,RR-LS,31,243.47844781147705,1,Left,Right
12,RR-LS,32,261.45542440694896,1,Left,Right
12,RR-LS,33,340.83130252647715,1,Left,Right
12,RR-LS,34,336.9065671307192,1,Left,Right
12,RR-LS,35,377.79412832795987,1,Left,Right
12,RR-LS,36,380.20872860164735,1,Left,Right
12,RR-LS,37,401.3525437881872,1,Left,Right
12,RR-LS,38,367.72685010344526,1,Left,Right
12,RR-LS,39,323.0663597894604,1,Left,Right
12,RR-LS,40,307.0438187060258,1,Left,Right
13,LR-LS,1,327.4201912295993,1,Left,Left
13,LR-LS,2,315.67010173874485,1,Left,Left
13,LR-LS,3,298.8510223589984,1,Left,Left
13,LR-LS,4,329.7554382996815,1,Left,Left
13,LR-LS,5,311.05690266091415,0,Left,Left
13,LR-LS,6,225.33299367901304,1,Left,Left
13,LR-LS,7,293.0887106398074,1,Left,Left
13,LR-LS,8,306.2162384265834,1,Left,Left
13,LR-LS,9,320.27503236055617,1,Left,Left
13,LR-LS,10,323.41353759445104,1,Left,Left
13,LR-LS,11,288.69422102197626,1,Left,Left
13,LR-LS,12,329.3694283000321,0,Left,Left
13,LR-LS,13,351.2589553110761,1,Left,Left
13,LR-LS,14,267.44150646522945,1,Left,Left
13,LR-LS,15,283.5419149206709,1,Left,Left
13,LR-LS,16,258.3503172407379,1,Left,Left
13,LR-LS,17,305.8135994273476,1,Left,Left
13,LR-LS,18,321.9737747484338,1,Left,Left
13,LR-LS,19,300.1157616273322,1,Left,Left
13,LR-LS,20,251.68313644697244,1,Left,Left
13,LR-LS,21,311.7670639780251,1,Left,Left
13,LR-LS,22,279.0932934024277,1,Left,Left
13,LR-LS,23,294.78225890850825,1,Left,Left
13,LR-LS,24,293.25214350940377,1,Left,Left
13,LR-LS,25,297.8205218453036,1,Left,Left
13,LR-LS,26,301.0011861390985,1,Left,Left
13,LR-LS,27,274.7757102243867,0,Left,Left
13,LR-LS,28,344.0255485567655,1,Left,Left
13,LR-LS,29,278.1557612325873,1,Left,Left
13,LR-LS,30,309.9186265627218,1,Left,Left
13,LR-LS,31,305.0579657311874,1,Left,Left
13,LR-LS,32,312.8432023408603,1,Left,Left
13,LR-LS,33,331.3223729117539,1,Left,Left
13,LR-LS,34,313.96348637423796,1,Left,Left
13,LR-LS,35,310.2556262355936,1,Left,Left
13,LR-LS,36,284.0375000292832,1,Left,Left
13,LR-LS,37,333.19764126002656,1,Left,Left
13,LR-LS,38,292.36679439834745,1,Left,Left
13,LR-LS,39,267.4045385022194,1,Left,Left
13,LR-LS,40,297.64912129732187,1,Left,Left
13,LR-RS,1,398.52708829284654,1,Right,Left
13,LR-RS,2,282.3506095847752,1,Right,Left
13,LR-RS,3,359.17658376956064,1,Right,Left
13,LR-RS,4,317.157043116265,1,Right,Left
13,LR-RS,5,319.48389365737427,1,Right,Left
13,LR-RS,6,324.50024813985664,1,Right,Left
13,LR-RS,7,411.2758859686244,1,Right,Left
13,LR-RS,8,308.825286516954,1,Right,Left
13,LR-RS,9,364.31821920365286,0,Right,Left
13,LR-RS,10,345.3736401324649,1,Right,Left
13,LR-RS,11,284.27506275280354,1,Right,Left
13,LR-RS,12,367.9905602555441,1,Right,Left
13,LR-RS,13,338.5780559498031,1,Right,Left
13,LR-RS,14,354.30784605544943,1,Right,Left
13,LR-RS,15,379.472427543904,1,Right,Left
13,LR-RS,16,366.2382148512678,1,Right,Left
13,LR-RS,17,361.09201399031525,1,Right,Left
13,LR-RS,18,386.88387015445767,1,Right,Left
13,LR-RS,19,345.0275371209842,0,Right,Left
13,LR-RS,20,389.06743729550186,1,Right,Left
13,LR-RS,21,242.79001651673963,1,Right,Left
13,LR-RS,22,300.88786977704643,1,Right,Left
13,LR-RS,23,311.0465406642299,1,Right,Left
13,LR-RS,24,384.06053071775125,1,Right,Left
13,LR-RS,25,369.895778014057,1,Right,Left
13,LR-RS,26,257.3368233984659,0,Right,Left
13,LR-RS,27,307.14789245361146,1,Right,Left
13,LR-RS,28,275.2883654632984,1,Right,Left
13,LR-RS,29,267.7144472025517,1,Right,Left
13,LR-RS,30,288.712880848063,1,Right,Left
13,LR-RS,31,327.63885479459907,1,Right,Left
13,LR-RS,32,347.6695257805165,1,Right,Left
13,LR-RS,33,270.57968136139823,0,Right,Left
13,LR-RS,34,343.2875219891611,1,Right,Left
13,LR-RS,35,395.04063896770936,1,Right,Left
13,LR-RS,36,287.30275446200335,1,Right,Left
13,LR-RS,37,315.35674025789734,1,Right,Left
13,LR-RS,38,312.1902372775945,0,Right,Left
13,LR-RS,39,299.1366174243168,1,Right,Left
13,LR-RS,40,299.52117924448316,1,Right,Left
13,RR-RS,1,277.0505382630735,1,Right,Right
13,RR-RS,2,360.33945448029067,1,Right,Right
13,RR-RS,3,319.0813681012144,1,Right,Right
13,RR-RS,4,236.6832399533848,1,Right,Right
13,RR-RS,5,282.08967452110136,1,Right,Right
13,RR-RS,6,292.53119611696087,0,Right,Right
13,RR-RS,7,332.04818239241797,1,Right,Right
13,RR-RS,8,366.4690782867386,1,Right,Right
13,RR-RS,9,279.3938410024642,1,Right,Right
13,RR-RS,10,289.8164328659709,1,Right,Right
13,RR-RS,11,240.50677493057896,1,Right,Right
13,RR-RS,12,308.11583604371987,1,Right,Right
13,RR-RS,13,311.32493305356564,1,Right,Right
13,RR-RS,14,276.1825461014529,1,Right,Right
13,RR-RS,15,274.0386580241275,1,Right,Right
13,RR-RS,16,289.36665868482083,1,Right,Right
13,RR-RS,17,277.1957335850562,1,Right,Right
13,RR-RS,18,259.1597137817731,1,Right,Right
13,RR-RS,19,337.987150305365,1,Right,Right
13,RR-RS,20,266.573110457878,0,Right,Right
13,RR-RS,21,356.0522418849459,1,Right,Right
13,RR-RS,22,297.87976636208583,1,Right,Right
13,RR-RS,23,334.5961346162375,1,Right,Right
13,RR-RS,24,288.07884662119864,1,Right,Right
13,RR-RS,25,253.77469527424796,1,Right,Right
13,RR-RS,26,266.5908788404046,1,Right,Right
13,RR-RS,27,334.0172608525852,1,Right,Right
13,RR-RS,28,294.46582791294543,1,Right,Right
13,RR-RS,29,315.9822517296137,1,Right,Right
13,RR-RS,30,324.9912753099248,1,Right,Right
13,RR-RS,31,270.1244192009839,1,Right,Right
13,RR-RS,32,301.45127157732,1,Right,Right
13,RR-RS,33,290.07000079084634,1,Right,Right
13,RR-RS,34,266.1690596826937,0,Right,Right
13,RR-RS,35,260.768078342197,1,Right,Right
13,RR-RS,36,319.24674331599573,1,Right,Right
13,RR-RS,37,347.5185401047651,1,Right,Right
13,RR-RS,38,327.5355275893973,1,Right,Right
13,RR-RS,39,313.2750658878011,1,Right,Right
13,RR-RS,40,316.81224967087167,1,Right,Right
13,RR-LS,1,372.37237452244915,1,Left,Right
13,RR-LS,2,321.0554541445345,0,Left,Right
13,RR-LS,3,266.49580471539247,1,Left,Right
13,RR-LS,4,475.37950061436254,1,Left,Right
13,RR-LS,5,240.8151815171073,1,Left,Right
13,RR-LS,6,373.82471178032046,1,Left,Right
13,RR-LS,7,236.45810994316167,1,Left,Right
13,RR-LS,8,253.0762522293116,1,Left,Right
13,RR-LS,9,294.66716623540066,1,Left,Right
13,RR-LS,10,326.6241027130558,1,Left,Right
13,RR-LS,11,329.67103098623863,1,Left,Right
13,RR-LS,12,308.9632871547531,1,Left,Right
13,RR-LS,13,236.61452993874894,1,Left,Right
13,RR-LS,14,336.9241868155339,1,Left,Right
13,RR-LS,15,336.17241641697905,1,Left,Right
13,RR-LS,16,349.39666718698504,1,Left,Right
13,RR-LS,17,345.24919304322947,1,Left,Right
13,RR-LS,18,331.97072498443674,0,Left,Right
13,RR-LS,19,278.2994012775544,1,Left,Right
13,RR-LS,20,283.03020450769475,1,Left,Right
13,RR-LS,21,318.6467139096984,1,Left,Right
13,RR-LS,22,333.41052496272124,1,Left,Right
13,RR-LS,23,305.23875170959775,1,Left,Right
13,RR-LS,24,302.26141134831175,1,Left,Right
13,RR-LS,25,353.8953396475048,1,Left,Right
13,RR-LS,26,413.5140646765956,1,Left,Right
13,RR-LS,27,195.2994157367644,1,Left,Right
13,RR-LS,28,369.5255159545537,1,Left,Right
13,RR-LS,29,302.0371459341899,1,Left,Right
13,RR-LS,30,234.86189157902115,1,Left,Right
13,RR-LS,31,365.44197936872683,0,Left,Right
13,RR-LS,32,377.8993922894961,1,Left,Right
13,RR-LS,33,197.27763198583023,1,Left,Right
13,RR-LS,34,340.657577469995,1,Left,Right
13,RR-LS,35,407.60267437513255,1,Left,Right
13,RR-LS,36,370.32632341737207,1,Left,Right
13,RR-LS,37,344.15667236279444,1,Left,Right
13,RR-LS,38,270.5675177558935,1,Left,Right
13,RR-LS,39,231.95438764676862,1,Left,Right
13,RR-LS,40,269.35857711648373,0,Left,Right
14,LR-LS,1,222.14389786937676,1,Left,Left
14,LR-LS,2,310.92677247772855,1,Left,Left
14,LR-LS,3,282.75088473561385,1,Left,Left
14,LR-LS,4,254.1645887379325,1,Left,Left
14,LR-LS,5,226.17230989734477,1,Left,Left
14,LR-LS,6,279.7651563432438,1,Left,Left
14,LR-LS,7,260.8986186626253,1,Left,Left
14,LR-LS,8,303.3344820771879,1,Left,Left
14,LR-LS,9,334.7568980734017,0,Left,Left
14,LR-LS,10,264.4916823329192,1,Left,Left
14,LR-LS,11,290.39202028289355,1,Left,Left
14,LR-LS,12,251.5615386378543,1,Left,Left
14,LR-LS,13,247.88899971820118,1,Left,Left
14,LR-LS,14,268.57607580891937,1,Left,Left
14,LR-LS,15,251.1568018965688,1,Left,Left
14,LR-LS,16,253.31815813119573,1,Left,Left
14,LR-LS,17,248.04383714484158,1,Left,Left
14,LR-LS,18,269.76527598936144,1,Left,Left
14,LR-LS,19,283.64491069260396,1,Left,Left
14,LR-LS,20,321.9392170692364,1,Left,Left
14,LR-LS,21,327.8381595242091,1,Left,Left
14,LR-LS,22,305.85542903319083,1,Left,Left
14,LR-LS,23,263.09623252744666,1,Left,Left
14,LR-LS,24,295.835213283349,1,Left,Left
14,LR-LS,25,271.991571376216,1,Left,Left
14,LR-LS,26,276.3129348000993,1,Left,Left
14,LR-LS,27,258.5332657042597,1,Left,Left
14,LR-LS,28,275.6420770367914,1,Left,Left
14,LR-LS,29,309.86928866936535,1,Left,Left
14,LR-LS,30,277.0077767470022,1,Left,Left
14,LR-LS,31,298.24187628052135,1,Left,Left
14,LR-LS,32,199.11603819705732,1,Left,Left
14,LR-LS,33,270.40264584520054,1,Left,Left
14,LR-LS,34,317.6237703424493,1,Left,Left
14,LR-LS,35,286.2559955777409,1,Left,Left
14,LR-LS,36,271.37231962854304,1,Left,Left
14,LR-LS,37,259.4376979247553,1,Left,Left
14,LR-LS,38,270.0564704224234,1,Left,Left
14,LR-LS,39,304.52665551986104,1,Left,Left
14,LR-LS,40,312.7807422260269,1,Left,Left
14,LR-RS,1,324.9814862165389,1,Right,Left
14,LR-RS,2,336.2484598933934,1,Right,Left
14,LR-RS,3,236.57742809451173,1,Right,Left
14,LR-RS,4,305.0367042255365,1,Right,Left
14,LR-RS,5,404.9916204397852,1,Right,Left
14,LR-RS,6,359.52956665327116,0,Right,Left
14,LR-RS,7,393.188983006987,1,Right,Left
14,LR-RS,8,335.45589612980626,1,Right,Left
14,LR-RS,9,340.6843613281398,0,Right,Left
14,LR-RS,10,373.2331809364979,1,Right,Left
14,LR-RS,11,296.8338589930549,1,Right,Left
14,LR-RS,12,270.66007006223685,0,Right,Left
14,LR-RS,13,396.5308317407266,1,Right,Left
14,LR-RS,14,372.5065732468303,1,Right,Left
14,LR-RS,15,431.2959474152618,1,Right,Left
14,LR-RS,16,353.99726087013914,1,Right,Left
14,LR-RS,17,336.02863653680436,1,Right,Left
14,LR-RS,18,300.16093582600524,1,Right,Left
14,LR-RS,19,375.27450093313183,1,Right,Left
14,LR-RS,20,353.5348202600142,1,Right,Left
14,LR-RS,21,419.23198114599734,0,Right,Left
14,LR-RS,22,363.82231140651277,1,Right,Left
14,LR-RS,23,316.4831740172045,1,Right,Left
14,LR-RS,24,373.4354306662917,1,Right,Left
14,LR-RS,25,288.0616521966893,1,Right,Left
14,LR-RS,26,365.2269313874355,1,Right,Left
14,LR-RS,27,321.12596739392166,1,Right,Left
14,LR-RS,28,431.90630173779016,1,Right,Left
14,LR-RS,29,321.4141628622479,1,Right,Left
14,LR-RS,30,277.4768079938807,1,Right,Left
14,LR-RS,31,310.1070132107693,0,Right,Left
14,LR-RS,32,374.0494486048792,1,Right,Left
14,LR-RS,33,387.3393087630529,1,Right,Left
14,LR-RS,34,390.880480907417,1,Right,Left
14,LR-RS,35,400.11175899409835,1,Right,Left
14,LR-RS,36,425.7181341531144,0,Right,Left
14,LR-RS,37,326.2438662088429,1,Right,Left
14,LR-RS,38,408.69906834760707,1,Right,Left
14,LR-RS,39,340.60551700333724,1,Right,Left
14,LR-RS,40,192.1683831414035,1,Right,Left
14,RR-RS,1,318.98428858887456,1,Right,Right
14,RR-RS,2,225.66551115022736,1,Right,Right
14,RR-RS,3,326.7584205836006,0,Right,Right
14,RR-RS,4,311.9697389484909,1,Right,Right
14,RR-RS,5,322.77542642264524,1,Right,Right
14,RR-RS,6,293.39006705252024,1,Right,Right
14,RR-RS,7,240.89807541646175,1,Right,Right
14,RR-RS,8,292.182418837237,1,Right,Right
14,RR-RS,9,318.8633243848755,1,Right,Right
14,RR-RS,10,322.10235412173427,1,Right,Right
14,RR-RS,11,243.06217828855637,1,Right,Right
14,RR-RS,12,336.4234751292212,1,Right,Right
14,RR-RS,13,299.0652381111055,0,Right,Right
14,RR-RS,14,279.13972414575153,1,Right,Right
14,RR-RS,15,315.3066262400872,1,Right,Right
14,RR-RS,16,366.559811004032,1,Right,Right
14,RR-RS,17,292.6251049272564,1,Right,Right
14,RR-RS,18,276.00608878576134,0,Right,Right
14,RR-RS,19,331.55972437761363,1,Right,Right
14,RR-RS,20,248.98734161700133,1,Right,Right
14,RR-RS,21,270.18404887436475,1,Right,Right
14,RR-RS,22,343.1501218551069,1,Right,Right
14,RR-RS,23,351.4219509798497,1,Right,Right
14,RR-RS,24,284.0338338582311,1,Right,Right
14,RR-RS,25,304.0324833062228,1,Right,Right
14,RR-RS,26,265.2983250191128,1,Right,Right
14,RR-RS,27,286.1145259450773,1,Right,Right
14,RR-RS,28,303.71596168192076,1,Right,Right
14,RR-RS,29,333.4348131432188,1,Right,Right
14,RR-RS,30,309.0955339750495,1,Right,Right
14,RR-RS,31,260.7991539983154,1,Right,Right
14,RR-RS,32,269.37786396987633,1,Right,Right
14,RR-RS,33,345.4136418812576,1,Right,Right
14,RR-RS,34,248.88711495560602,1,Right,Right
14,RR-RS,35,338.31196122492247,1,Right,Right
14,RR-RS,36,275.7728366712638,1,Right,Right
14,RR-RS,37,344.89620712190157,1,Right,Right
14,RR-RS,38,366.17554532211693,1,Right,Right
14,RR-RS,39,297.3889461212786,1,Right,Right
14,RR-RS,40,318.8372359828539,1,Right,Right
14,RR-LS,1,404.74214640153565,1,Left,Right
14,RR-LS,2,286.48846662574283,1,Left,Right
14,RR-LS,3,307.3451512703004,1,Left,Right
14,RR-LS,4,275.43972483071116,1,Left,Right
14,RR-LS,5,431.9962072322034,1,Left,Right
14,RR-LS,6,351.0027980776634,1,Left,Right
14,RR-LS,7,223.03440679212144,0,Left,Right
14,RR-LS,8,348.99171930778357,1,Left,Right
14,RR-LS,9,287.81677383014943,1,Left,Right
14,RR-LS,10,325.7230479792923,1,Left,Right
14,RR-LS,11,262.95531696079746,0,Left,Right
14,RR-LS,12,370.7692736124305,1,Left,Right
14,RR-LS,13,232.08720333466968,1,Left,Right
14,RR-LS,14,229.50404644555152,1,Left,Right
14,RR-LS,15,300.23638804352987,1,Left,Right
14,RR-LS,16,341.9065080185946,1,Left,Right
14,RR-LS,17,326.385341459626,1,Left,Right
14,RR-LS,18,319.7237021221541,0,Left,Right
14,RR-LS,19,381.04037279369993,0,Left,Right
14,RR-LS,20,329.75793094909216,1,Left,Right
14,RR-LS,21,319.0187011334353,1,Left,Right
14,RR-LS,22,355.59543243187954,1,Left,Right
14,RR-LS,23,342.3335364012327,1,Left,Right
14,RR-LS,24,352.83015190327546,1,Left,Right
14,RR-LS,25,381.18164177079996,1,Left,Right
14,RR-LS,26,325.3274685115648,1,Left,Right
14,RR-LS,27,295.73181732905914,1,Left,Right
14,RR-LS,28,280.8336691764704,1,Left,Right
14,RR-LS,29,301.99519984139334,1,Left,Right
14,RR-LS,30,347.3547200611267,1,Left,Right
14,RR-LS,31,394.4878504172837,1,Left,Right
14,RR-LS,32,253.85146343418177,1,Left,Right
14,RR-LS,33,241.64670197064038,1,Left,Right
14,RR-LS,34,441.33005973560313,1,Left,Right
14,RR-LS,35,334.58568257204576,1,Left,Right
14,RR-LS,36,321.7638952315568,1,Left,Right
14,RR-LS,37,362.07286595986596,0,Left,Right
14,RR-LS,38,277.6459178376857,1,Left,Right
14,RR-LS,39,269.7682806218331,1,Left,Right
14,RR-LS,40,325.8933670748713,1,Left,Right
15,LR-LS,1,299.65817815966074,1,Left,Left
15,LR-LS,2,314.618564255718,1,Left,Left
15,LR-LS,3,340.44425833003646,1,Left,Left
15,LR-LS,4,303.46912539612,1,Left,Left
15,LR-LS,5,310.58871011364886,1,Left,Left
15,LR-LS,6,305.719245098631,1,Left,Left
15,LR-LS,7,293.42159344115277,1,Left,Left
15,LR-LS,8,287.6510866879112,1,Left,Left
15,LR-LS,9,225.9348345615828,1,Left,Left
15,LR-LS,10,275.9074144566607,1,Left,Left
15,LR-LS,11,304.2701884606838,1,Left,Left
15,LR-LS,12,301.1118949596615,1,Left,Left
15,LR-LS,13,332.38523438917684,1,Left,Left
15,LR-LS,14,287.706117327521,1,Left,Left
15,LR-LS,15,317.2500634986648,1,Left,Left
15,LR-LS,16,259.1551992755548,1,Left,Left
15,LR-LS,17,315.20237720543986,1,Left,Left
15,LR-LS,18,308.02348170332107,1,Left,Left
15,LR-LS,19,295.9355481232744,1,Left,Left
15,LR-LS,20,310.1191288332091,1,Left,Left
15,LR-LS,21,316.16892332331236,1,Left,Left
15,LR-LS,22,288.74062700227677,1,Left,Left
15,LR-LS,23,326.9799805097045,1,Left,Left
15,LR-LS,24,285.3871323762069,1,Left,Left
15,LR-LS,25,278.2693960609438,1,Left,Left
15,LR-LS,26,290.6084770841708,0,Left,Left
15,LR-LS,27,283.43465074819187,1,Left,Left
15,LR-LS,28,300.51213998419155,1,Left,Left
15,LR-LS,29,343.29710566876685,0,Left,Left
15,LR-LS,30,295.67986879740835,1,Left,Left
15,LR-LS,31,277.25497094690706,1,Left,Left
15,LR-LS,32,282.7901457458452,1,Left,Left
15,LR-LS,33,268.38691613004227,1,Left,Left
15,LR-LS,34,337.49703816761144,1,Left,Left
15,LR-LS,35,301.41722961446214,1,Left,Left
15,LR-LS,36,262.7233041159447,1,Left,Left
15,LR-LS,37,260.655284380053,1,Left,Left
15,LR-LS,38,275.19396185877963,1,Left,Left
15,LR-LS,39,243.10342139498147,1,Left,Left
15,LR-LS,40,267.7179180922848,1,Left,Left
15,LR-RS,1,272.66587862515127,1,Right,Left
15,LR-RS,2,331.2393379365524,1,Right,Left
15,LR-RS,3,248.5189169355616,1,Right,Left
15,LR-RS,4,264.3118376088913,1,Right,Left
15,LR-RS,5,295.82794661097586,1,Right,Left
15,LR-RS,6,242.9787770197259,1,Right,Left
15,LR-RS,7,260.0735721815176,1,Right,Left
15,LR-RS,8,342.48087051915553,1,Right,Left
15,LR-RS,9,306.96511630495024,1,Right,Left
15,LR-RS,10,333.4769598499924,1,Right,Left
15,LR-RS,11,367.6672600299025,1,Right,Left
15,LR-RS,12,272.0522834176244,1,Right,Left
15,LR-RS,13,317.4202766035282,1,Right,Left
15,LR-RS,14,373.02871306597035,1,Right,Left
15,LR-RS,15,286.99531718116685,1,Right,Left
15,LR-RS,16,412.6748621368395,1,Right,Left
15,LR-RS,17,356.74253357516926,1,Right,Left
15,LR-RS,18,372.9179773489715,0,Right,Left
15,LR-RS,19,264.7106752530754,1,Right,Left
15,LR-RS,20,289.076503156243,1,Right,Left
15,LR-RS,21,370.52570924850136,0,Right,Left
15,LR-RS,22,256.68938701211016,1,Right,Left
15,LR-RS,23,377.28189064640577,1,Right,Left
15,LR-RS,24,337.36824991331804,1,Right,Left
15,LR-RS,25,315.99453960538943,1,Right,Left
15,LR-RS,26,388.3239778593164,1,Right,Left
15,LR-RS,27,406.40927505759936,1,Right,Left
15,LR-RS,28,343.28764955255366,1,Right,Left
15,LR-RS,29,274.5401054523453,1,Right,Left
15,LR-RS,30,350.70896288027063,1,Right,Left
15,LR-RS,31,382.24954755344595,1,Right,Left
15,LR-RS,32,416.1686073793777,0,Right,Left
15,LR-RS,33,393.45549804581776,1,Right,Left
15,LR-RS,34,286.45508021542753,1,Right,Left
15,LR-RS,35,262.5131036070071,1,Right,Left
15,LR-RS,36,337.5890453643074,1,Right,Left
15,LR-RS,37,251.6527798513698,1,Right,Left
15,LR-RS,38,283.4760974805951,0,Right,Left
15,LR-RS,39,283.58570418120877,1,Right,Left
15,LR-RS,40,284.131531481165,1,Right,Left
15,RR-RS,1,332.6145547046383,1,Right,Right
15,RR-RS,2,365.3236578070774,1,Right,Right
15,RR-RS,3,282.83526244314305,1,Right,Right
15,RR-RS,4,378.97625288438815,1,Right,Right
15,RR-RS,5,361.29181730674316,1,Right,Right
15,RR-RS,6,341.99865359643877,1,Right,Right
15,RR-RS,7,274.4862081060041,1,Right,Right
15,RR-RS,8,394.27163285457993,1,Right,Right
15,RR-RS,9,320.6092829469673,1,Right,Right
15,RR-RS,10,337.28420145570135,1,Right,Right
15,RR-RS,11,360.68732107364923,1,Right,Right
15,RR-RS,12,309.36456699038547,1,Right,Right
15,RR-RS,13,246.3829860252397,1,Right,Right
15,RR-RS,14,306.78742494184223,0,Right,Right
15,RR-RS,15,326.3812307436907,1,Right,Right
15,RR-RS,16,281.68160193587596,1,Right,Right
15,RR-RS,17,309.00602016065267,1,Right,Right
15,RR-RS,18,321.449314147379,1,Right,Right
15,RR-RS,19,325.28233990596544,1,Right,Right
15,RR-RS,20,329.5204837880684,1,Right,Right
15,RR-RS,21,289.89429218128805,1,Right,Right
15,RR-RS,22,306.1061166440304,1,Right,Right
15,RR-RS,23,314.72062212513083,1,Right,Right
15,RR-RS,24,321.46389305879603,1,Right,Right
15,RR-RS,25,366.28257875021495,1,Right,Right
15,RR-RS,26,277.14845202480524,1,Right,Right
15,RR-RS,27,368.0697506490993,1,Right,Right
15,RR-RS,28,305.22404577503005,1,Right,Right
